sTimestamp,sRoll,sPitch,sYaw,sAcc_x,sAcc_y,sAcc_z,sGyro_x,sGyro_y,sGyro_z
2024-05-13 17:26:10.802662,0.37098711421538455,0.14537717472934963,171.3921634847994,0.006148963700979948,-0.00036759223439730704,-1.0064541101455688,0.0023345868103206158,0.010810657404363155,0.0009612278081476688
2024-05-13 17:26:10.819951,0.3718834431418165,0.16155880000760897,171.3932972962016,0.009643643163144588,-0.0017441357485949993,-1.0025726556777954,0.0023581096902489662,0.010832700878381729,0.0014533719513565302
2024-05-13 17:26:10.850023,0.3773931646461954,0.1737254880133041,171.38458197482066,0.014386147260665894,-0.006561156362295151,-0.9973784685134888,0.0038771952968090773,0.006351638585329056,-0.001210460439324379
2024-05-13 17:26:10.865265,0.3754210275646335,0.177162900775032,171.38209578596278,0.011443981900811195,-0.006183555815368891,-1.0008165836334229,-0.001531696179881692,0.0026356661692261696,0.001301842276006937
2024-05-13 17:26:10.877003,0.37300893025098764,0.186118252612484,171.4017940515291,0.0044159796088933945,0.0005363044328987598,-0.9979320764541626,0.0008717822493053973,0.006964321248233318,0.0012848646147176623
2024-05-13 17:26:10.916700,0.3776640510158951,0.19647538071516207,171.40485397627728,0.00293184001930058,-0.005574118811637163,-1.0022960901260376,0.002758465940132737,0.008523200638592243,0.00030427100136876106
2024-05-13 17:26:10.927998,0.3794803477265896,0.20673810012886323,171.41468944868208,0.00796433538198471,-0.002993345260620117,-0.9972409605979919,0.0026747779920697212,0.006910168100148439,0.0014713926939293742
2024-05-13 17:26:10.952449,0.3819357473723563,0.2159727693507717,171.41695707148654,0.009504045359790325,-0.004943962674587965,-1.0044844150543213,0.0022103884257376194,0.0065246280282735825,0.0008718849858269095
2024-05-13 17:26:10.976722,0.3859748971319197,0.22904369702933983,171.41341903349647,0.009456216357648373,-0.004653186537325382,-1.000746250152588,0.0038506423588842154,0.008796167559921741,-0.001113061560317874
2024-05-13 17:26:10.990453,0.3928320335326423,0.24392694603506204,171.40284590066128,0.01321706548333168,-0.006985189858824015,-1.003002405166626,0.005407802760601044,0.00837843306362629,0.0014751594280824065
2024-05-13 17:26:11.012574,0.3938197162392231,0.24506972206056982,171.40673910848818,0.008585984818637371,-0.0032450822181999683,-0.9984485507011414,0.0028385845944285393,0.001309489132836461,0.0019572367891669273
2024-05-13 17:26:11.036399,0.3929268024073762,0.252015437477091,171.4172849205667,0.007660515606403351,-0.000803333125077188,-1.0004161596298218,0.0023848991841077805,0.005562278442084789,-0.00012428541958797723
2024-05-13 17:26:11.052663,0.39893611489694447,0.26518593650715316,171.4164379771096,0.007884419523179531,-0.007185014896094799,-1.000913381576538,0.003644521813839674,0.009994366206228733,0.00012405906454659998
2024-05-13 17:26:11.078733,0.4044634454827773,0.27812090073255574,171.41836409045555,0.008684683591127396,-0.009348222985863686,-1.0022917985916138,0.003951183054596186,0.009373057633638382,0.0006635581376031041
2024-05-13 17:26:11.096669,0.40673181533916203,0.28759733463869885,171.424046807845,0.01005498506128788,-0.004606276750564575,-1.0020688772201538,0.002411590190604329,0.0070152971893548965,-0.0004129447916056961
2024-05-13 17:26:11.105428,0.4049938256800847,0.3025743386629501,171.43961963915262,0.008663717657327652,-0.0006454950198531151,-1.0020796060562134,0.0020557157695293427,0.011819282546639442,0.00010775972623378038
2024-05-13 17:26:11.132593,0.41037820254102325,0.31823038622066224,171.43804869564352,0.008698997087776661,-0.005923162214457989,-1.0007699728012085,0.0044152867048978806,0.012440971098840237,0.000632130540907383
2024-05-13 17:26:11.156321,0.4150046151670755,0.3276720288507206,171.43360907268303,0.014815316535532475,-0.006546444725245237,-0.999076247215271,0.004382492508739233,0.0059230634942650795,0.0005339492345228791
2024-05-13 17:26:11.163979,0.4145198051381368,0.3353605807003336,171.44187360157875,0.014712593518197536,-0.0030661537311971188,-1.0025956630706787,0.001805056701414287,0.004581131506711245,0.0009148995159193873
2024-05-13 17:26:11.177776,0.41431343203958193,0.34694548866717434,171.45373080997788,0.010769722051918507,-0.0018761056708171964,-1.0024493932724,0.0020698397420346737,0.009050232358276844,-0.000404113408876583
2024-05-13 17:26:11.215924,0.4186769090630152,0.35839203194246944,171.45655850829425,0.009166938252747059,-0.0070537785068154335,-1.0059090852737427,0.002850876422598958,0.008328752592206001,-0.0007650731131434441
2024-05-13 17:26:11.225847,0.4213525556290883,0.36287458370912834,171.46184507471185,0.010594635270535946,-0.006436140276491642,-1.0034821033477783,0.0022621862590312958,0.004432312678545713,0.0006986125954426825
2024-05-13 17:26:11.252607,0.41802828121570196,0.37107598671587405,171.47453556618973,0.008431284688413143,-0.0008291531703434885,-1.0054547786712646,0.0003573118301574141,0.00794169120490551,-6.06561079621315e-05
2024-05-13 17:26:11.272739,0.42272905219025747,0.3878518651323509,171.47221330187193,0.010913283564150333,-0.005629329010844231,-1.0067272186279297,0.00421484000980854,0.011841932311654091,-0.0010728994384407997
2024-05-13 17:26:11.312445,0.42848487394816837,0.40048363299162837,171.46147624449668,0.015950681641697884,-0.007146429270505905,-1.0054515600204468,0.004804110154509544,0.007872361689805984,-0.000752327439840883
2024-05-13 17:26:11.313450,0.43132399148707223,0.403423976068466,171.45983699909587,0.014672646299004555,-0.0061509800143539906,-1.0038135051727295,0.003054260741919279,0.0018097071442753077,-0.00025372940581291914
2024-05-13 17:26:11.334232,0.43100718810346,0.41143421381973067,171.47289632078895,0.00994922872632742,-0.0030236467719078064,-1.0027107000350952,0.002905669854953885,0.006541214417666197,0.0007483829976990819
2024-05-13 17:26:11.354359,0.43637995897889487,0.4264187417242395,171.47763647207293,0.007770750671625137,-0.007605816703289747,-1.0080435276031494,0.003428351366892457,0.011833586730062962,-0.0007330338121391833
2024-05-13 17:26:11.372069,0.4407274010660344,0.44070578992061366,171.48147503838646,0.00899190828204155,-0.00835653766989708,-1.0030770301818848,0.0034227906726300716,0.011505642905831337,-0.0017617865232750773
2024-05-13 17:26:11.387581,0.4423427941655953,0.45586955692998243,171.49375571851417,0.011413977481424809,-0.0038349078968167305,-1.0046144723892212,0.0026773244608193636,0.012277629226446152,5.16413310833741e-05
2024-05-13 17:26:11.414241,0.4459525224615206,0.471772265030182,171.49881005849997,0.01687675714492798,-0.0034556628670543432,-1.0066872835159302,0.004310062155127525,0.010838175192475319,-0.00014591493527404964
2024-05-13 17:26:11.432606,0.45062076999623923,0.4844258841587182,171.4970478696941,0.020970100536942482,-0.0072476682253181934,-1.0013915300369263,0.004059460014104843,0.006666597444564104,-0.0001978281798074022
2024-05-13 17:26:11.447323,0.4493783158975316,0.4876124342107936,171.50494356837464,0.015535172075033188,-0.005816966760903597,-1.0038492679595947,0.0005460891989059746,0.0023470213636755943,0.0010383366607129574
2024-05-13 17:26:11.474560,0.4489621012449839,0.4945369653687171,171.51981972038692,0.009504005312919617,-0.003178114304319024,-1.0057491064071655,0.0019973008893430233,0.0069551486521959305,-0.0006281944806687534
2024-05-13 17:26:11.491907,0.4493196189593518,0.5075031190126343,171.52796130587757,0.009880783967673779,-0.003925852477550507,-1.0027848482131958,0.0011471565812826157,0.010689303278923035,-0.002205637516453862
2024-05-13 17:26:11.507709,0.45273236566683095,0.517480531286142,171.5304611551138,0.013088840991258621,-0.0071298833936452866,-1.0071519613265991,0.0027077309787273407,0.007700235117226839,-0.00044223415898159146
2024-05-13 17:26:11.534697,0.45443479031745665,0.5233659665557244,171.52633572085512,0.016497524455189705,-0.007122685667127371,-1.005121111869812,0.0024248010013252497,0.0035081140231341124,-0.0006885327165946364
2024-05-13 17:26:11.552490,0.4545868687481952,0.5334277423376524,171.52047541854725,0.018481820821762085,-0.007498192600905895,-1.00179922580719,0.001584813348017633,0.005393212661147118,-0.001193357864394784
2024-05-13 17:26:11.576541,0.4558086188359812,0.5463823700373451,171.53106221176077,0.01300097070634365,-0.005735515616834164,-1.0082871913909912,0.002591324970126152,0.010197085328400135,-0.001018524868413806
2024-05-13 17:26:11.594548,0.4580950780214959,0.5609324872384707,171.54215443897286,0.008914804086089134,-0.005237216595560312,-1.0024080276489258,0.003013226669281721,0.013065546751022339,-0.0020686383359134197
2024-05-13 17:26:11.603805,0.4608685617113442,0.5758536224497453,171.55350621337342,0.01077262219041586,-0.005559855606406927,-1.0079035758972168,0.0032454372849315405,0.012851481325924397,-0.0013752246741205454
2024-05-13 17:26:11.636176,0.46433104073371756,0.5895968168334572,171.55739942120033,0.01860019937157631,-0.005510081071406603,-1.0045604705810547,0.0040706307627260685,0.009174138307571411,-0.00011309555702609941
2024-05-13 17:26:11.654310,0.46290609251812365,0.6008186041963766,171.56425693112703,0.023099705576896667,-0.004609277006238699,-0.9993984699249268,0.0013441751943901181,0.0047983573749661446,-0.00042167806532233953
2024-05-13 17:26:11.664226,0.4647985351658932,0.6087358606614791,171.57601851687778,0.01993749663233757,-0.00571854505687952,-1.0080652236938477,0.002288013231009245,0.0043633850291371346,0.0006806754972785711
2024-05-13 17:26:11.696699,0.4647266580970494,0.6178845788895939,171.5917279519688,0.010783705860376358,-0.0038118481170386076,-1.0020643472671509,0.0013436403824016452,0.007129406090825796,-0.0013076583854854107
2024-05-13 17:26:11.709909,0.4653959632748577,0.6226420190899193,171.59765655616837,0.008030815981328487,-0.007068249396979809,-1.0095231533050537,0.0010830869432538748,0.005262163933366537,-0.002158349845558405
2024-05-13 17:26:11.732491,0.465843607469758,0.6272510093975028,171.6057844812807,0.017530858516693115,-0.00498372595757246,-1.0000659227371216,0.0012298144865781069,0.0024555695708841085,-0.0008793191518634558
2024-05-13 17:26:11.756647,0.4644280507642729,0.6372419753276447,171.60941814191915,0.017931511625647545,-0.008528121747076511,-1.0071182250976562,-0.00048725842498242855,0.007139536086469889,-0.0007969281286932528
2024-05-13 17:26:11.771423,0.46822499561256525,0.6569279145369438,171.6181744444351,0.01926898956298828,-0.0069067166186869144,-1.003700852394104,0.0031462619081139565,0.013076893985271454,-0.003208752954378724
2024-05-13 17:26:11.777533,0.4712923375192828,0.6745282448110088,171.62097482199482,0.012780978344380856,-0.006656289100646973,-1.006139874458313,0.0027194316498935223,0.015401900745928288,-0.001776570570655167
2024-05-13 17:26:11.816425,0.47468117856466696,0.6818090130228308,171.62637067143913,0.015408514067530632,-0.005877586081624031,-1.006239652633667,0.0034566218964755535,0.005512527655810118,-0.0010991914896294475
2024-05-13 17:26:11.834173,0.4721010212448417,0.6883085249874797,171.65501648481816,0.01754317618906498,0.001367343356832862,-0.9997932314872742,0.0017319468315690756,0.005339851602911949,0.002536516170948744
2024-05-13 17:26:11.852487,0.47549674584024876,0.7036636973761675,171.66388207036084,0.022581318393349648,-0.007284738589078188,-1.0068690776824951,0.0021818531677126884,0.009148305281996727,0.0007184650748968124
2024-05-13 17:26:11.876677,0.47663327864596833,0.7160818884217499,171.6722012407699,0.018726343289017677,-0.007230537012219429,-1.0041933059692383,0.0015446238685399294,0.008798920549452305,-0.0004025191883556545
2024-05-13 17:26:11.886290,0.48255985513312954,0.7202626045240323,171.6732257691454,0.019209451973438263,-0.010033574886620045,-1.0064070224761963,0.0030223866924643517,0.0016462020576000214,-0.002115582348778844
2024-05-13 17:26:11.912510,0.4780096684854317,0.7185603933168182,171.6928420724417,0.011519000865519047,-0.00406165886670351,-1.003179669380188,-0.0007744733593426645,0.0010962459491565824,0.0007954611210152507
2024-05-13 17:26:11.936609,0.4787321210727192,0.735529464701186,171.70763626218394,0.012298060581088066,-0.0061990260146558285,-1.0055711269378662,0.0010808429215103388,0.01201651431620121,-0.0022045662626624107
2024-05-13 17:26:11.943888,0.48085161414953875,0.7575585323217696,171.71536803632438,0.015124057419598103,-0.00879964791238308,-1.0061184167861938,0.001402457244694233,0.016516076400876045,-0.0014827614650130272
2024-05-13 17:26:11.978618,0.4864992734586402,0.771571092290874,171.71150214925416,0.027086343616247177,-0.008811588399112225,-1.003909707069397,0.0031531830318272114,0.007993549108505249,-0.0039041952695697546
2024-05-13 17:26:11.990897,0.4813307412476446,0.7747029474687364,171.7423336231676,0.02279091812670231,0.0013360403245314956,-1.003334403038025,0.00048336066538468003,0.0015417354879900813,0.0027748914435505867
2024-05-13 17:26:12.014582,0.48413949646125365,0.7845893794880653,171.76343890770295,0.01707664504647255,-0.002398558659479022,-1.0009112358093262,0.002952931448817253,0.006875139661133289,0.0009231485310010612
2024-05-13 17:26:12.031795,0.4885629510833361,0.7947480585788428,171.7638623794315,0.015962917357683182,-0.01041896641254425,-1.0085663795471191,0.002245602197945118,0.008209159597754478,-0.0008581238798797131
2024-05-13 17:26:12.052604,0.4899134609091474,0.7934903966370613,171.76286517181265,0.018584290519356728,-0.010191328823566437,-1.0023010969161987,-0.0001898302580229938,6.785057485103607e-05,-0.002949794987216592
2024-05-13 17:26:12.074594,0.4845609404773846,0.8028163796184791,171.78473543753503,0.019310345873236656,-0.00508087407797575,-1.0079337358474731,-0.001962431240826845,0.006422080565243959,-0.00010919792111963034
2024-05-13 17:26:12.092585,0.48375118953476787,0.8237358083032,171.80077272170624,0.016147734597325325,-0.003882554592564702,-1.001010775566101,0.0004326108319219202,0.016550712287425995,-0.00402111979201436
2024-05-13 17:26:12.115351,0.48817064209288347,0.8423198992611585,171.79924275933215,0.021985018625855446,-0.011484879069030285,-1.0069912672042847,0.0016903558280318975,0.011607001535594463,-0.0038648045156151056
2024-05-13 17:26:12.134720,0.48504780489915955,0.8431886139462195,171.82120864770292,0.022862281650304794,-0.001694440608844161,-1.0004310607910156,-0.0006377834361046553,0.0007518233614973724,0.0009800796397030354
2024-05-13 17:26:12.152317,0.48324607570130423,0.8502265902773888,171.85604261246996,0.018480366095900536,0.0009978105081245303,-1.0044760704040527,0.0016893992433324456,0.005502026993781328,0.0024176049046218395
2024-05-13 17:26:12.168027,0.48736654740067314,0.8641908586746269,171.86856917940779,0.02084287814795971,-0.008047680370509624,-1.0067259073257446,0.003609771141782403,0.008763632737100124,-0.0007911508437246084
2024-05-13 17:26:12.200532,0.48936090927746395,0.8654240279849316,171.8612745373742,0.0208232793956995,-0.012419255450367928,-1.0033987760543823,-0.00018894874665420502,0.0006136557785794139,-0.0037877103313803673
2024-05-13 17:26:12.211836,0.48668881120810803,0.8696031966224802,171.8774484253288,0.0180587787181139,-0.008234520442783833,-1.0045676231384277,-0.0006301444373093545,0.0037411986850202084,-0.0003857508418150246
2024-05-13 17:26:12.227766,0.48458431253095074,0.8876402854774559,171.8979663135955,0.014620358124375343,-0.0016676750965416431,-1.0073060989379883,0.000826318166218698,0.015135697089135647,-0.0020620394498109818
2024-05-13 17:26:12.254772,0.48827320165213944,0.9056207584675144,171.8902891809684,0.022307688370347023,-0.00986185297369957,-1.0036742687225342,0.0014605482574552298,0.011254452168941498,-0.005334476009011269
2024-05-13 17:26:12.272426,0.4859242569078897,0.9131738804724907,171.91763725840514,0.028478410094976425,-0.00010208605090156198,-1.0007121562957764,0.0012009302154183388,0.00350873451679945,0.002841978333890438
2024-05-13 17:26:12.296694,0.4877131261401984,0.9174453100246874,171.9378682787267,0.021310120820999146,-0.002722247503697872,-1.005594253540039,0.003967342432588339,0.0038577974773943424,0.002040083520114422
2024-05-13 17:26:12.314692,0.4899778674585865,0.9258448418782164,171.94124239217672,0.01976758986711502,-0.009411342442035675,-1.0059971809387207,0.0011104615405201912,0.004325442481786013,-0.004191739950329065
2024-05-13 17:26:12.324316,0.48975519261947353,0.9310204177217936,171.94117409028502,0.022302035242319107,-0.014153430238366127,-1.0033541917800903,-0.0016491697169840336,0.0037820953875780106,-3.976217703893781e-05
2024-05-13 17:26:12.356253,0.4874168666849491,0.9388181458764209,171.95251220430723,0.009403159841895103,-0.005651561077684164,-1.0068804025650024,-0.0006830342463217676,0.009568702429533005,-0.001859863637946546
2024-05-13 17:26:12.374068,0.4877554946573936,0.9568890121512764,171.95517597808353,0.02399637922644615,-0.007031583227217197,-0.9994140863418579,0.001550724497064948,0.010541081428527832,-0.006635233759880066
2024-05-13 17:26:12.384760,0.49200536642502246,0.9634893227670359,171.94143363747347,0.03354097902774811,-0.013250056654214859,-0.9969624280929565,0.0026625071186572313,0.0005124409217387438,-0.005509043112397194
2024-05-13 17:26:12.416263,0.49888438077543024,0.9493903182162486,171.92101137185514,0.03042667917907238,-0.01890471577644348,-1.0015918016433716,0.002619244856759906,-0.014962242916226387,-0.008871564641594887
2024-05-13 17:26:12.434543,0.5069874397302984,0.9242001536704185,171.88231152001785,0.024474844336509705,-0.024468543007969856,-0.9951853156089783,0.0004045687383040786,-0.023827526718378067,-0.018808769062161446
2024-05-13 17:26:12.445835,0.49767234236287033,0.8892204604141088,171.83661755447045,0.005305300001055002,-0.02255921997129917,-0.997382640838623,-0.009703989140689373,-0.024355705827474594,-0.030890827998518944
2024-05-13 17:26:12.476706,0.48231919768659237,0.866425824637102,171.79178419275848,0.0026660077273845673,-0.011119437403976917,-0.9895007610321045,-0.012296294793486595,-0.017085127532482147,-0.0462317019701004
2024-05-13 17:26:12.490658,0.46384310909488474,0.8553082510198782,171.75412252967504,0.01677156239748001,0.0040844501927495,-0.992499053478241,-0.010184618644416332,-0.012821035459637642,-0.058164842426776886
2024-05-13 17:26:12.503598,0.4386460076381788,0.8413271739539795,171.7300119619049,0.03122270107269287,0.020961709320545197,-0.9804121255874634,-0.009965444914996624,-0.02057400718331337,-0.06643928587436676
2024-05-13 17:26:12.536711,0.418596681020694,0.8085125439428581,171.70724011121206,0.03343334421515465,0.025173217058181763,-0.9867028594017029,-0.005733231082558632,-0.0340762734413147,-0.07205169647932053
2024-05-13 17:26:12.552864,0.40497053366779784,0.7602533087536041,171.65371874887586,0.027800362557172775,0.017400577664375305,-0.9857293367385864,-0.0034627767745405436,-0.04416366294026375,-0.07930819690227509
2024-05-13 17:26:12.572553,0.40431272775378746,0.7043195556190475,171.58719270635993,0.014546900987625122,0.0013743196614086628,-0.9761000871658325,0.0013138571521267295,-0.04725087806582451,-0.07321895658969879
2024-05-13 17:26:12.596716,0.4080897690039516,0.6534858193603746,171.5171149654756,0.0018513399409130216,-0.012381374835968018,-0.9756326079368591,0.0008113147923722863,-0.04092606529593468,-0.06320781260728836
2024-05-13 17:26:12.604149,0.40806410243371116,0.6138380653323315,171.45699564040115,0.005569444969296455,-0.012658086605370045,-0.9759934544563293,-0.001367182470858097,-0.03407883271574974,-0.05603213608264923
2024-05-13 17:26:12.632437,0.40402935494451125,0.5854972625884215,171.42621880800107,0.020802611485123634,-0.0037486038636416197,-0.9785473942756653,-0.001584361307322979,-0.030198678374290466,-0.0460519976913929
2024-05-13 17:26:12.656388,0.3991833890892401,0.5573176096202413,171.3978325418105,0.02007594145834446,-0.005159905180335045,-0.9833710789680481,-0.002341873710975051,-0.02902768924832344,-0.036179933696985245
2024-05-13 17:26:12.667584,0.3970503423557863,0.523507319455032,171.36978778507842,0.017937129363417625,-0.006633915938436985,-0.9851266145706177,-0.00262812408618629,-0.031387414783239365,-0.03209129348397255
2024-05-13 17:26:12.677550,0.3957663468331032,0.49355042992047343,171.35547170857808,0.013125583529472351,-0.006744098849594593,-0.9810740351676941,-0.0019231833284720778,-0.028342783451080322,-0.021032804623246193
2024-05-13 17:26:12.715846,0.38892591237933544,0.4637173909254742,171.37292967209663,0.004223539028316736,-0.0017633461393415928,-0.9881680011749268,-0.0038936950732022524,-0.02437429130077362,-0.010840493254363537
2024-05-13 17:26:12.725555,0.3846143554657649,0.44273275527852074,171.39436280571212,0.011080719530582428,-0.00027084434987045825,-0.9850149154663086,-0.0014900340465828776,-0.020036688074469566,-0.006230371072888374
2024-05-13 17:26:12.752617,0.38607828378439546,0.4258910295695767,171.4113836371238,0.018977422267198563,-0.006647930480539799,-0.9894291758537292,0.00035674008540809155,-0.019575733691453934,0.0002488309401087463
2024-05-13 17:26:12.772424,0.3887067860369397,0.4056267921170744,171.4204268075849,0.01590420864522457,-0.011898376978933811,-0.989922821521759,-0.00020727938681375235,-0.020708685740828514,0.0061136106960475445
2024-05-13 17:26:12.794693,0.3880033032328548,0.3856974473773144,171.44688696042954,0.006460599601268768,-0.004666340071707964,-0.9922599792480469,-0.00015390908811241388,-0.01650538295507431,0.011037182994186878
2024-05-13 17:26:12.812588,0.38547527946630383,0.36830629164658096,171.48215805730348,0.0068033114075660706,-0.0009494061814621091,-0.98990797996521,2.995890099555254e-06,-0.015042099170386791,0.014585202559828758
2024-05-13 17:26:12.836121,0.38370087102512856,0.3558079792803832,171.52406809805066,0.012186226435005665,-0.002373914932832122,-0.9931420087814331,-0.0006139726610854268,-0.01376113947480917,0.02113248221576214
2024-05-13 17:26:12.854601,0.3816423160423102,0.34356491855398824,171.57279466758953,0.014450701884925365,-0.003102937014773488,-0.9924097657203674,-5.9889585827477276e-05,-0.013078182004392147,0.02658114582300186
2024-05-13 17:26:12.865383,0.38611091394593816,0.3336224042782711,171.6110437269416,0.01653144881129265,-0.010560468770563602,-0.994313657283783,0.0014154101954773068,-0.01256093755364418,0.0273443553596735
2024-05-13 17:26:12.896010,0.387385491278086,0.3210104332954161,171.6618193532315,0.011765038594603539,-0.006913617253303528,-0.995383620262146,0.00042092043440788984,-0.012619205750524998,0.030436094850301743
2024-05-13 17:26:12.911566,0.3837102892156638,0.30696353561747663,171.73225226395266,0.002559151267632842,-0.0032499609515070915,-0.9947456121444702,-0.0016991012962535024,-0.010228032246232033,0.03438755124807358
2024-05-13 17:26:12.932264,0.38381460968306513,0.2966947197263327,171.80589536358374,0.001046806457452476,-0.004074661992490292,-0.9972572326660156,2.8175913030281663e-05,-0.007365405093878508,0.03698981553316116
2024-05-13 17:26:12.955769,0.38492438202106,0.29518351369204093,171.87971604813325,0.008694558404386044,-0.005572193302214146,-0.9968507885932922,0.0007730656070634723,-0.0031312452629208565,0.03937046602368355
2024-05-13 17:26:12.961958,0.38587551254341074,0.2986181116687789,171.94357831687284,0.013907532207667828,-0.008712207898497581,-1.0001447200775146,-0.0005933038773946464,-0.0007889755652286112,0.040304381400346756
2024-05-13 17:26:12.992128,0.38576084007054856,0.30029583024451617,172.00827386869122,0.01880311779677868,-0.006297093816101551,-0.9986483454704285,-0.0010257672984153032,-0.0024954508990049362,0.039837222546339035
2024-05-13 17:26:13.007743,0.38179116614144887,0.29518268659882113,172.08391138355992,0.0120921665802598,-0.002220475347712636,-0.9982988834381104,-0.0014518416719511151,-0.005898610223084688,0.04082478582859039
2024-05-13 17:26:13.021501,0.3757596822175045,0.2859528598743125,172.153497350824,0.005954406224191189,-0.0012464795727282763,-0.9990710020065308,-0.0030019176192581654,-0.007608914747834206,0.03919385001063347
2024-05-13 17:26:13.052683,0.37132472833162417,0.2782358666901088,172.21968188388144,0.00467417249456048,0.001016327179968357,-0.9979616403579712,-0.002389026340097189,-0.006601028144359589,0.03818491846323013
2024-05-13 17:26:13.067909,0.36662489117199426,0.2727560806242016,172.2855658886154,0.011722703464329243,-0.0008214737754315138,-0.9993332028388977,-0.001995980739593506,-0.0071522886864840984,0.040140241384506226
2024-05-13 17:26:13.100610,0.36373788226762094,0.266326978304942,172.35326672366855,0.01395763736218214,-0.0005574836395680904,-0.9990106225013733,-0.0012885878095403314,-0.008415382355451584,0.03936571627855301
2024-05-13 17:26:13.112409,0.36150905280322826,0.2597273080194172,172.41665087916627,0.01736975461244583,-0.0016862370539456606,-0.999875009059906,-0.0003745374851860106,-0.010063749738037586,0.038985997438430786
2024-05-13 17:26:13.136669,0.36078137085235745,0.25073224236720126,172.4828354122237,0.011395684443414211,-0.005620199721306562,-0.9973374009132385,-0.0012364389840513468,-0.009977364912629128,0.042831648141145706
2024-05-13 17:26:13.154340,0.36004323017432005,0.23735160829845542,172.55507149288576,0.002733273897320032,-0.0055403681471943855,-0.9994184970855713,-0.000708153354935348,-0.009254579432308674,0.04512326791882515
2024-05-13 17:26:13.165647,0.3619468786011966,0.23016318104256078,172.62856432835508,0.004736865404993296,-0.00628487765789032,-0.997798502445221,0.0008457615040242672,-0.006753271911293268,0.04609968885779381
2024-05-13 17:26:13.196718,0.36345045403352505,0.2263275495759226,172.70582742824627,0.00833391398191452,-0.005934951826930046,-0.9998814463615417,0.0008607972413301468,-0.004661936778575182,0.048770688474178314
2024-05-13 17:26:13.213866,0.3614357616717828,0.22243158032487823,172.78778969828642,0.009839375503361225,-0.0038928764406591654,-0.9970993399620056,0.00020471613970585167,-0.005355733912438154,0.047681912779808044
2024-05-13 17:26:13.226455,0.36191905091641413,0.2204904992596988,172.86477959061082,0.010554952546954155,-0.004052231088280678,-0.9994428157806396,0.0014630258083343506,-0.0032809332478791475,0.04590246453881264
2024-05-13 17:26:13.256673,0.36201168535703243,0.21805053424063073,172.9471653323795,0.007416037376970053,-0.002597696613520384,-0.997434675693512,0.0016636414220556617,-0.0029091702308505774,0.04819190874695778
2024-05-13 17:26:13.271923,0.36295884049584276,0.21568670181842453,173.02895001750124,0.007060596719384193,-0.004367771092802286,-0.9999023675918579,0.0011008954606950283,-0.0031073433347046375,0.053213611245155334
2024-05-13 17:26:13.277031,0.36563243266907963,0.21348715412205563,173.1029346265908,0.005257545504719019,-0.0062717413529753685,-1.0003905296325684,0.001844973536208272,-0.0019256900995969772,0.05628540366888046
2024-05-13 17:26:13.316625,0.36709049129389226,0.21322705998485303,173.1873967458672,0.009942949749529362,-0.0070448084734380245,-1.0001903772354126,0.0006422700826078653,-0.0035647652111947536,0.0585126094520092
2024-05-13 17:26:13.334006,0.3677114515389816,0.21428107023157705,173.26024754355456,0.010705909691751003,-0.0053262291476130486,-1.0002539157867432,0.0008579869172535837,-0.0027345032431185246,0.05422249808907509
2024-05-13 17:26:13.337012,0.36801379413146046,0.21327587182503482,173.3382483038761,0.010437939316034317,-0.001135157304815948,-0.999028742313385,0.0014459335943683982,-0.002812383696436882,0.05399832874536514
2024-05-13 17:26:13.376703,0.3687050839806598,0.21116689083623472,173.40936423351428,0.009593546390533447,-0.004820244386792183,-0.9998354911804199,0.0010916553437709808,-0.0030178993474692106,0.055900126695632935
2024-05-13 17:26:13.383985,0.3701435591724615,0.209063085850165,173.4766415968389,0.0072324397042393684,-0.0055835554376244545,-0.9997855424880981,0.0017958828248083591,-0.00133175915107131,0.0545271635055542
2024-05-13 17:26:13.397508,0.37260757659597005,0.21055585570978302,173.55089941349527,0.008449169807136059,-0.006107861641794443,-0.9998037815093994,0.0016166645800694823,-0.0009688987629488111,0.05532066151499748
2024-05-13 17:26:13.436353,0.37422825241996716,0.21274083589331275,173.62862696625,0.012183712795376778,-0.00638539157807827,-1.0011627674102783,0.0014794629532843828,-0.0012436758261173964,0.05747899413108826
2024-05-13 17:26:13.445396,0.3738833278668815,0.2129874163945208,173.70930516072622,0.012692008167505264,-0.003758207429200411,-1.0010337829589844,0.0004380271420814097,-0.0025452682748436928,0.05758652463555336
2024-05-13 17:26:13.458904,0.3735680185871502,0.21009987388161855,173.79240124216858,0.008104224689304829,-0.0019106630934402347,-1.0006272792816162,0.0008333498844876885,-0.003298676572740078,0.05640239268541336
2024-05-13 17:26:13.495444,0.3748852579211842,0.20723192814194044,173.87904902197937,0.007222091779112816,-0.003182209562510252,-1.0004318952560425,0.0016485975356772542,-0.0029983120039105415,0.05660620704293251
2024-05-13 17:26:13.505515,0.37760631457306737,0.20632611432390718,173.9615850279098,0.005008680280297995,-0.004848961252719164,-0.9998000860214233,0.002317247446626425,-0.001280914293602109,0.056756842881441116
2024-05-13 17:26:13.532321,0.3802714223706946,0.2054757557722406,174.04112941098376,0.005665994249284267,-0.005056000780314207,-1.0007802248001099,0.001800381112843752,-0.0008782794466242194,0.05713779479265213
2024-05-13 17:26:13.553557,0.3815888484677137,0.20655887436421652,174.12167100167656,0.00894861575216055,-0.0038084459956735373,-1.0011236667633057,0.002360277809202671,-0.00045298380427993834,0.056346215307712555
2024-05-13 17:26:13.574388,0.38109147195791926,0.20870152605119066,174.21501236687396,0.0116809057071805,-0.0008312796126119792,-1.0023263692855835,0.0016101441578939557,-0.0009393766522407532,0.05428272485733032
2024-05-13 17:26:13.592068,0.3814278854549688,0.20709531101832696,174.3079029395861,0.0084880031645298,-0.002409679815173149,-0.9993031620979309,0.0014713710406795144,-0.002417574170976877,0.05245376378297806
2024-05-13 17:26:13.615386,0.3834669637264821,0.20470359755048537,174.3974740403617,0.00789069663733244,-0.004028650000691414,-1.0012073516845703,0.001852966146543622,-0.002898304956033826,0.05584397539496422
2024-05-13 17:26:13.634347,0.3855845091321712,0.20363096436610245,174.47394483830914,0.007040573284029961,-0.009639515541493893,-1.001198410987854,-0.00022108186385594308,-0.002280029933899641,0.05827778950333595
2024-05-13 17:26:13.652390,0.3833254507446159,0.2029344318131066,174.55484159883878,0.009028549306094646,-0.00728821475058794,-1.0018452405929565,-0.0026703483890742064,-0.002226294483989477,0.059438783675432205
2024-05-13 17:26:13.668534,0.3779126859099394,0.20368738012782117,174.63617549147529,0.011272989213466644,-0.002518120687454939,-1.0006554126739502,-0.003173776902258396,-0.0018528908258304,0.05569112300872803
2024-05-13 17:26:13.694688,0.37090323095464034,0.20352445610373257,174.72425761101175,0.01048031635582447,0.0020229166839271784,-1.0003936290740967,-0.00351782632060349,-0.0020521129481494427,0.054633934050798416
2024-05-13 17:26:13.711872,0.36679916771753535,0.20090136997775676,174.8052909753248,0.008517035283148289,-0.0015514615224674344,-0.9990389347076416,-0.0019308279734104872,-0.003015835303813219,0.05473751574754715
2024-05-13 17:26:13.726971,0.3644895499218661,0.19769332884217963,174.87818275414716,0.006530457641929388,-0.005289887543767691,-0.9991288185119629,-0.0019209885504096746,-0.0030667241662740707,0.053839895874261856
2024-05-13 17:26:13.740585,0.3637560249576038,0.1965740982930099,174.95192147642663,0.005648397840559483,-0.005905639845877886,-1.0009719133377075,-0.0012728377478197217,-0.0023039730731397867,0.05422195419669151
2024-05-13 17:26:13.778362,0.36352969490006776,0.19762374629001012,175.02541431189596,0.009942801669239998,-0.003916438203305006,-1.0006287097930908,0.00017272234254051,-0.0003731684118974954,0.055921394377946854
2024-05-13 17:26:13.787839,0.36384927304803033,0.19765568276046522,175.1013660154665,0.011226451955735683,-0.0036888872273266315,-1.001346468925476,0.001972012687474489,-0.002296064980328083,0.05420694127678871
2024-05-13 17:26:13.814722,0.36526245519556183,0.1948211275744835,175.1831370402099,0.011455567553639412,-0.003378617577254772,-1.0004262924194336,0.00263902242295444,-0.004246995318681002,0.05515030398964882
2024-05-13 17:26:13.832168,0.36699027961216346,0.18914263903262446,175.2613290458282,0.006101136561483145,-0.005110507365316153,-1.0004984140396118,0.0022031739354133606,-0.004481362644582987,0.05270761996507645
2024-05-13 17:26:13.856722,0.36965477375998246,0.18849199681311465,175.33896097593458,0.006025803275406361,-0.00652072811499238,-1.0009602308273315,0.0019810786470770836,-0.0014765176456421614,0.0521656796336174
2024-05-13 17:26:13.867191,0.37131744457520455,0.1881557834192634,175.42137403845996,0.006296095903962851,-0.005439365282654762,-1.000920057296753,0.001037661568261683,-0.0007676213863305748,0.05209860950708389
2024-05-13 17:26:13.892543,0.36967641158582965,0.18934838514115787,175.50494823314423,0.008885785937309265,-0.0037737293168902397,-1.000887393951416,-0.00023090076865628362,6.235555338207632e-05,0.05082792416214943
2024-05-13 17:26:13.916728,0.36726770268634235,0.18971147906465283,175.59211510733192,0.00946031417697668,-0.0006685074185952544,-1.0015031099319458,-0.0004295308026485145,-0.00016264240548480302,0.051627494394779205
2024-05-13 17:26:13.927698,0.366888707228686,0.1902262912331293,175.67298454710487,0.00832868367433548,-0.002659343183040619,-0.9999280571937561,0.0006123691564425826,-0.0010738527635112405,0.04996047168970108
2024-05-13 17:26:13.952537,0.36748053244809703,0.18882200700781732,175.7525835716922,0.006752022076398134,-0.005503576248884201,-1.0011042356491089,0.00022533940500579774,-0.0015957369469106197,0.05207206308841705
2024-05-13 17:26:13.976726,0.3688915801615129,0.1871050815454186,175.82705995440202,0.004369504749774933,-0.007020351476967335,-1.0007307529449463,0.001641194918192923,-0.001300336210988462,0.051035936921834946
2024-05-13 17:26:13.990563,0.36887116963528216,0.18710325393620708,175.90510169585858,0.007063244003802538,-0.005240719765424728,-1.0015630722045898,0.0005239869351498783,-0.0006574583239853382,0.05233320966362953
2024-05-13 17:26:14.012632,0.3681592024555877,0.19011716828896777,175.98412698455564,0.010365652851760387,-0.004056210163980722,-1.0005342960357666,0.0005500313709490001,-0.0009889475768432021,0.051862116903066635
2024-05-13 17:26:14.033875,0.3667489017941123,0.19124749789553877,176.05514729154544,0.009394015185534954,-0.0023554135113954544,-1.0003657341003418,0.00013861262414138764,-0.0007846227963455021,0.05026664212346077
2024-05-13 17:26:14.053972,0.3665996248081505,0.18930801765594604,176.12372239081236,0.00764467241242528,-0.00252843601629138,-0.999813973903656,0.001358348992653191,-0.002204593736678362,0.04900645092129707
2024-05-13 17:26:14.072484,0.36772311088533827,0.18986831995151188,176.1936362071566,0.008678285405039787,-0.003751608310267329,-0.9991987943649292,0.00017800355271901935,-0.0007113256142474711,0.04919537529349327
2024-05-13 17:26:14.086228,0.36811638037114286,0.19162789407558353,176.26167855166827,0.008177179843187332,-0.00458339462056756,-1.0013368129730225,0.0006600772612728179,3.1579467759002e-05,0.04910634830594063
2024-05-13 17:26:14.114095,0.3672127410078649,0.1953770809605387,176.32760353753724,0.01218491978943348,-0.0056368582881987095,-1.001165747642517,-0.0008980489219538867,0.00026692746905609965,0.04936162754893303
2024-05-13 17:26:14.130554,0.3657864054100958,0.1979606400347357,176.39836429733856,0.011871911585330963,-0.00439819460734725,-1.0017268657684326,0.00030348371365107596,-0.000698403047863394,0.04924962297081947
2024-05-13 17:26:14.156727,0.36398272854111,0.20100403625871852,176.46983539681358,0.010506623424589634,-0.0032062563113868237,-1.000466227531433,-0.000937971577513963,7.056168396957219e-05,0.04786396771669388
2024-05-13 17:26:14.174608,0.36416215440895505,0.20049800195054257,176.53858808099892,0.006445853039622307,-0.004264026414602995,-1.0005520582199097,0.00023595732636749744,-0.0017318163299933076,0.04697328805923462
2024-05-13 17:26:14.178816,0.36531789712171525,0.19810100575826475,176.61331035051887,0.007706446573138237,-0.002671020571142435,-0.9996514320373535,0.0016779277939349413,-0.003173103090375662,0.04723384603857994
2024-05-13 17:26:14.215886,0.3666667260806606,0.19755137563327707,176.6883331483623,0.006437958683818579,-0.003772610565647483,-1.0001347064971924,0.0019706471357494593,-0.0015108385123312473,0.04793800413608551
2024-05-13 17:26:14.225963,0.3689163395972542,0.19961720103230182,176.7626319461537,0.009706764481961727,-0.005090968683362007,-1.0013359785079956,0.0019128533313050866,-0.0007256076787598431,0.04813852906227112
2024-05-13 17:26:14.240408,0.3712079747854992,0.19823719599505513,176.8379962534556,0.008791092783212662,-0.00530316773802042,-1.0012989044189453,0.001236764364875853,-0.0024197835009545088,0.04915228113532066
2024-05-13 17:26:14.276385,0.37068570543783125,0.1966126781896499,176.90491844694338,0.00715377414599061,-0.0037643301766365767,-1.0011403560638428,0.0006859684945084155,-0.001950275618582964,0.045521702617406845
2024-05-13 17:26:14.285436,0.3715906788224315,0.198165839194527,176.96868509303462,0.007865349762141705,-0.002026201691478491,-1.0004961490631104,0.001986843766644597,-9.674951434135437e-05,0.042211875319480896
2024-05-13 17:26:14.312632,0.3726694751853233,0.19809752396261365,177.02746570103176,0.007063224446028471,-0.0043943184427917,-1.000428557395935,0.00139242026489228,-0.0010761125013232231,0.0434015728533268
2024-05-13 17:26:14.334962,0.3735188465612114,0.19698224211655785,177.08489393157322,0.009645470418035984,-0.005134313367307186,-1.0009450912475586,0.0005032351473346353,-0.00292559084482491,0.0429253987967968
2024-05-13 17:26:14.354674,0.37321172817239884,0.19720275584112876,177.143619898057,0.009315572679042816,-0.006267754826694727,-1.0023080110549927,-0.0002268421376356855,-0.001836129231378436,0.04390602931380272
2024-05-13 17:26:14.372515,0.37367420668440277,0.19870778535669842,177.20175846827215,0.010071097873151302,-0.005564732011407614,-1.001343011856079,-0.00035038107307627797,-0.0009795783553272486,0.04291989654302597
2024-05-13 17:26:14.396711,0.37177274605249466,0.1980863848845727,177.25973311394722,0.009020315483212471,-0.004594788420945406,-1.0012444257736206,-0.0004696222022175789,-0.0018545640632510185,0.04301286116242409
2024-05-13 17:26:14.399358,0.3686098081778234,0.19749297217978817,177.32295334490485,0.006721194367855787,-0.0021664979867637157,-1.0011786222457886,-0.0012056241976097226,-0.0017765574157238007,0.04221658036112785
2024-05-13 17:26:14.432663,0.3666771581274007,0.19800528972839204,177.37728066956313,0.009876084513962269,-0.004699331242591143,-1.0010440349578857,-0.0014001185772940516,-0.0016662772977724671,0.042834553867578506
2024-05-13 17:26:14.446377,0.3646167621951576,0.19743877089346443,177.42798799396132,0.0084580909460783,-0.004291135352104902,-1.0007762908935547,-0.00048559936112724245,-0.0022644593846052885,0.041271790862083435
2024-05-13 17:26:14.474751,0.36288466891032467,0.195572274960413,177.4841594696955,0.009386804886162281,-0.002879149978980422,-0.9998912811279297,-0.0002716080634854734,-0.0025777642149478197,0.04062714800238609
2024-05-13 17:26:14.492124,0.36033097857353324,0.19506670755969982,177.53925177554083,0.0075433035381138325,-0.0022085949312895536,-1.0008344650268555,-0.0012042383896186948,-0.0017698336159810424,0.04010260850191116
2024-05-13 17:26:14.506551,0.358135659724756,0.1947528523632098,177.59513638332987,0.007735994178801775,-0.0033892879728227854,-1.0006009340286255,-0.0009553827112540603,-0.00150289258453995,0.03946894407272339
2024-05-13 17:26:14.534728,0.3578210708165387,0.19362705842913452,177.64393125476045,0.008163092657923698,-0.0060601867735385895,-1.0013957023620605,-0.001205765875056386,-0.002661394886672497,0.03767507150769234
2024-05-13 17:26:14.552577,0.3557929048394416,0.19398572340183953,177.69656469250455,0.009820835664868355,-0.004008912947028875,-1.001591682434082,-0.0006180417258292437,-0.0019949055276811123,0.03685485199093819
2024-05-13 17:26:14.576733,0.3545149124127087,0.19506716112694938,177.7562742062288,0.011346139945089817,-0.003559473901987076,-1.0013827085494995,-0.0006813745712861419,-0.0011354467133060098,0.038079384714365005
2024-05-13 17:26:14.594669,0.35320834524925293,0.19287105520559195,177.81924855037633,0.007532523479312658,-0.0026045062113553286,-1.0008494853973389,1.5666046238038689e-06,-0.002354881726205349,0.03713255003094673
2024-05-13 17:26:14.604246,0.35304474087428994,0.18892807504315087,177.88813783834507,0.005597215611487627,-0.0022429667878896,-0.9993472099304199,0.00175861909519881,-0.002370320726186037,0.037487905472517014
2024-05-13 17:26:14.636117,0.35451477901057654,0.18975743609920495,177.95825656036442,0.007572246715426445,-0.0034929888788610697,-1.0014972686767578,0.0013586734421551228,-0.000591257237829268,0.03708750009536743
2024-05-13 17:26:14.654334,0.35459201884513586,0.19102922532678926,178.02341656504635,0.009381260722875595,-0.004151341505348682,-0.9998936057090759,0.00029393890872597694,-0.0009087842190638185,0.03642239049077034
2024-05-13 17:26:14.678217,0.35285152122597263,0.19063951767791507,178.08796185270296,0.011541415005922318,-0.004602923057973385,-1.0009021759033203,-0.0012831487692892551,-0.002927482593804598,0.03629821911454201
2024-05-13 17:26:14.696638,0.3494027559427922,0.19042199216110603,178.14839536647924,0.009724882431328297,-0.004039756953716278,-1.000011682510376,-0.0018803358543664217,-0.001302613876760006,0.032674361020326614
2024-05-13 17:26:14.711198,0.34768616398572405,0.1916084707251313,178.20765408771825,0.00979530904442072,-0.003849772037938237,-1.000952959060669,-0.0016772064846009016,-0.0011989607010036707,0.031974904239177704
2024-05-13 17:26:14.732600,0.3458821402711944,0.18841890578486756,178.26614782777025,0.004305050242692232,-0.004178633913397789,-1.001424789428711,-0.0006316810613498092,-0.002308900933712721,0.03188721090555191
2024-05-13 17:26:14.756846,0.343903199680889,0.18759141235866467,178.32378096398682,0.006677706725895405,-0.003903051605448127,-1.0019594430923462,-0.000930177397094667,-0.0017890410963445902,0.03254057839512825
2024-05-13 17:26:14.771456,0.34308968679814345,0.18805459790196938,178.38013002463944,0.0050756074488162994,-0.0036227009259164333,-1.001267433166504,-0.00039341504452750087,-0.0015454504173249006,0.03093072958290577
2024-05-13 17:26:14.792496,0.341626425490174,0.18812528769183637,178.43251757557343,0.010089890100061893,-0.003973810002207756,-1.0004255771636963,-0.0007202106062322855,-0.002081148559227586,0.03063877299427986
2024-05-13 17:26:14.816732,0.3412662397331616,0.18525864929305408,178.49087471184203,0.008549289777874947,-0.0026634493842720985,-1.0012456178665161,0.0005837741773575544,-0.0032828766852617264,0.03160242736339569
2024-05-13 17:26:14.834096,0.3409249437180725,0.18259049992681206,178.54509275347357,0.008336239494383335,-0.003671466838568449,-0.9991852641105652,0.00028855615528300405,-0.00371454656124115,0.030847093090415
2024-05-13 17:26:14.852621,0.34104375165703377,0.18193424147753548,178.59723441759746,0.006886315997689962,-0.0030529475770890713,-1.0007139444351196,0.0004906168906018138,-0.0020162693690508604,0.02986442856490612
2024-05-13 17:26:14.876113,0.34233377695609346,0.18237310781213525,178.64152136417582,0.009338758885860443,-0.005363641772419214,-1.0009939670562744,0.0007029774715192616,-0.0012428893242031336,0.030359970405697823
2024-05-13 17:26:14.896505,0.3407212386621622,0.18066237220867185,178.68702408442644,0.00915163941681385,-0.004000944085419178,-1.0006887912750244,5.6303768360521644e-05,-0.003572422079741955,0.030177142471075058
2024-05-13 17:26:14.912640,0.3408716362260347,0.179497784934545,178.73218529521856,0.009605963714420795,-0.002021882915869355,-1.001078486442566,0.0018910968210548162,-0.0027117826975882053,0.02740517444908619
2024-05-13 17:26:14.933692,0.3421042986082369,0.17986023852780525,178.7688224299265,0.008976678363978863,-0.0035651493817567825,-0.9999738335609436,0.0012148545356467366,-0.0021061869338154793,0.025911487638950348
2024-05-13 17:26:14.954666,0.3417991012101284,0.17837013671083177,178.80846484786926,0.007512383162975311,-0.0033758331555873156,-1.0014723539352417,0.000524111557751894,-0.002338782185688615,0.025982029736042023
2024-05-13 17:26:14.972639,0.34316868754084817,0.1775030361915707,178.84482877501043,0.005367099307477474,-0.00483870692551136,-1.0004140138626099,0.0005309027619659901,-0.0013749476056545973,0.02483503706753254
2024-05-13 17:26:14.990326,0.3441869460161354,0.17872421265018817,178.88272266452566,0.008066759444773197,-0.003620000323280692,-1.001949429512024,0.0015728510916233063,-0.0015648615080863237,0.024560978636145592
2024-05-13 17:26:15.014604,0.3452989061490988,0.1801358873536255,178.91814402556133,0.009780069813132286,-0.0037092273123562336,-0.9999825358390808,0.0019379801815375686,-0.0013421137118712068,0.02433175779879093
2024-05-13 17:26:15.032361,0.34530944491754473,0.17984927287253621,178.95056010336222,0.009886439889669418,-0.0036204694770276546,-1.0012898445129395,0.001050552586093545,-0.002235755091533065,0.023522695526480675
2024-05-13 17:26:15.052608,0.3457428951255761,0.17832297905708958,178.98107738857382,0.009370444342494011,-0.004237935412675142,-1.0003924369812012,0.0010195643408223987,-0.002525526564568281,0.023915529251098633
2024-05-13 17:26:15.074611,0.34722469932992506,0.17680843796949214,179.0157747495575,0.007259128615260124,-0.00492232758551836,-1.0014011859893799,0.0020943637937307358,-0.0021459339186549187,0.02363690361380577
2024-05-13 17:26:15.091877,0.3489530840354821,0.17514157832731814,179.04749414806304,0.008909620344638824,-0.0041929567232728004,-1.0015594959259033,0.0017667855136096478,-0.002772730076685548,0.021954184398055077
2024-05-13 17:26:15.115325,0.34886343780262563,0.17568375127311434,179.08163143353477,0.00907521415501833,-0.004569202195852995,-1.0001074075698853,0.00028159611974842846,-0.0015979422023519874,0.022423340007662773
2024-05-13 17:26:15.134595,0.34798602529854344,0.1746736836887458,179.11967558721173,0.007714198902249336,-0.003935268148779869,-1.0006483793258667,2.5257671950384974e-05,-0.001951614860445261,0.020097555592656136
2024-05-13 17:26:15.152373,0.3470120029703026,0.1736555052547379,179.15707770310672,0.006488349288702011,-0.0035950185265392065,-1.0006650686264038,0.0002057310484815389,-0.0020985533483326435,0.01859591156244278
2024-05-13 17:26:15.167835,0.34775427911443907,0.17337322634294597,179.1955043473772,0.006403075531125069,-0.0037115374580025673,-1.0015610456466675,0.0018437316175550222,-0.0010152111062780023,0.018678538501262665
2024-05-13 17:26:15.194580,0.34827428062585913,0.17394625520192625,179.23312502932563,0.007051185704767704,-0.002831136342138052,-0.9998400211334229,0.001251380192115903,-0.00055536231957376,0.01938360370695591
2024-05-13 17:26:15.211871,0.34891325015879915,0.17303036952290984,179.2644072957243,0.007696777582168579,-0.0047658709809184074,-1.0008805990219116,0.0014640068402513862,-0.0024226168170571327,0.019104372709989548
2024-05-13 17:26:15.227768,0.3496348489724404,0.17453634619361832,179.2982303924942,0.008466426283121109,-0.0037706810981035233,-0.9999777674674988,0.002283531241118908,-0.0007503436645492911,0.01641482673585415
2024-05-13 17:26:15.254739,0.3502339846286975,0.1749386336635615,179.3337200554216,0.007171354256570339,-0.003860581200569868,-1.0004024505615234,0.0015748129226267338,-0.0007795737474225461,0.015470181591808796
2024-05-13 17:26:15.272294,0.3501535431429647,0.17662722451307525,179.3670377181929,0.008479506708681583,-0.002721010008826852,-0.9998239278793335,0.0018342125695198774,0.00010393711272627115,0.015704482793807983
2024-05-13 17:26:15.296724,0.3505913689409331,0.17895439802934554,179.39326564460575,0.007933342829346657,-0.002761747222393751,-1.0012669563293457,0.0015967856161296368,0.0006072319811210036,0.013725873082876205
2024-05-13 17:26:15.314639,0.3519602615805653,0.1802509867133108,179.41695274064736,0.008864288218319416,-0.005079313647001982,-1.0010849237442017,0.0010207460727542639,-0.0008467547595500946,0.013420253992080688
2024-05-13 17:26:15.324361,0.35337939346319414,0.1811799324610722,179.44253862927823,0.010610589757561684,-0.006142331287264824,-1.0013667345046997,0.0008197693387046456,-0.0014948486350476742,0.013820989057421684
2024-05-13 17:26:15.356659,0.35206885091619794,0.17969759464819432,179.47249583897792,0.008055692538619041,-0.003770447801798582,-1.0009934902191162,0.00042364426190033555,-0.0020921616815030575,0.012935620732605457
2024-05-13 17:26:15.374120,0.3510781266410023,0.17847689843725287,179.50202957694904,0.007145016919821501,-0.0029005210381001234,-1.000719666481018,0.0004372097901068628,-0.002137645846232772,0.010607076808810234
2024-05-13 17:26:15.384791,0.3501214199095245,0.17772695167051342,179.5299377298977,0.007230476010590792,-0.003933691419661045,-1.0015441179275513,0.0007299732533283532,-0.0016822820762172341,0.011575968004763126
2024-05-13 17:26:15.416326,0.35018918819269573,0.1771447847654756,179.55632958085064,0.008401992730796337,-0.004761368967592716,-1.0002431869506836,0.00035166036104783416,-0.0029182813595980406,0.01199873723089695
2024-05-13 17:26:15.434592,0.34829986715482025,0.1769889710750347,179.5830356205054,0.008730081841349602,-0.0037700373213738203,-1.0018664598464966,-0.0005767748225480318,-0.00148687488399446,0.011976185254752636
2024-05-13 17:26:15.445881,0.34741778557611014,0.17755459611567637,179.60859418837958,0.009140764363110065,-0.002869765041396022,-1.0001925230026245,-0.0005352229927666485,-0.0021454922389239073,0.010279168374836445
2024-05-13 17:26:15.476742,0.3468905803495498,0.17678666674151272,179.63402981284872,0.007363429758697748,-0.0037642994429916143,-1.0007458925247192,0.0007006258238106966,-0.0030613448470830917,0.0093674436211586
2024-05-13 17:26:15.490727,0.3472896661683195,0.17425480099355362,179.65618694651624,0.006377640180289745,-0.0030154527630656958,-1.000628113746643,0.001155375735834241,-0.0028388958889991045,0.007452931720763445
2024-05-13 17:26:15.512510,0.34660507310615796,0.17637780254645077,179.67654091024286,0.007557897362858057,-0.003319226671010256,-1.0010066032409668,0.0004716385737992823,-0.0006847212789580226,0.008517729118466377
2024-05-13 17:26:15.536726,0.3464742856557228,0.17833638597137838,179.68927238285576,0.008459473960101604,-0.004200488328933716,-1.0010639429092407,0.0006020069704391062,-3.790097252931446e-05,0.008065593428909779
2024-05-13 17:26:15.552959,0.34600220219019856,0.1787751589244856,179.7068532897794,0.010142439045011997,-0.003597665810957551,-1.0012322664260864,0.0008119205012917519,-0.0020321193151175976,0.0071410005912184715
2024-05-13 17:26:15.578112,0.3464604118339712,0.1787528274075508,179.7224534418437,0.008161541074514389,-0.003707122290506959,-1.0010144710540771,0.0006249293801374733,-0.0016406731447204947,0.004992355592548847
2024-05-13 17:26:15.596742,0.3459801107971018,0.18114351367897427,179.73474778234973,0.00883438903838396,-0.0038980511017143726,-1.0012381076812744,0.0002470865729264915,-0.00043594837188720703,0.0028903642669320107
2024-05-13 17:26:15.606284,0.3464401347098727,0.1820190718934185,179.7458263491835,0.007812591269612312,-0.004466380458325148,-0.999947726726532,-0.0004472156579140574,-0.0005629971856251359,0.002742978511378169
2024-05-13 17:26:15.632564,0.34573923990715305,0.18193508191096852,179.75537495364316,0.00856079813092947,-0.00444705318659544,-1.0008054971694946,-0.000183674885192886,-0.001972972648218274,0.001606642035767436
2024-05-13 17:26:15.656670,0.3452191583544536,0.1829357179645886,179.7663852185852,0.008802056312561035,-0.0032210336066782475,-1.0010151863098145,0.0004003712965641171,-0.0011144254822283983,0.0019537515472620726
2024-05-13 17:26:15.666325,0.34506091674520617,0.18268722981288973,179.77766869109408,0.00747158145532012,-0.004098824691027403,-1.0004826784133911,0.0007137148058973253,-0.000877401209436357,0.0024882785510271788
2024-05-13 17:26:15.677836,0.3446249852575154,0.18294713718710723,179.789075107008,0.008775807917118073,-0.004067215137183666,-1.0000221729278564,-2.1013227524235845e-05,-0.0009360411204397678,0.0013688700273633003
2024-05-13 17:26:15.716850,0.3447104960242728,0.18283263813701695,179.7985280888193,0.0075821527279913425,-0.0040641301311552525,-1.0013797283172607,0.0005551320500671864,-0.0010359961306676269,0.0011579591082409024
2024-05-13 17:26:15.725149,0.3450397858474614,0.18314134401120302,179.81277586342793,0.00842041801661253,-0.0036234722938388586,-1.000623106956482,0.00021454425586853176,-0.0012100676540285349,0.0019338817801326513
2024-05-13 17:26:15.752633,0.3457048755178914,0.1829394799047174,179.82075352437852,0.009054254740476608,-0.0038806290831416845,-1.0008386373519897,0.00048356776824221015,-0.002060377737507224,0.002113507129251957
2024-05-13 17:26:15.772471,0.3462735954880008,0.18315652517385042,179.83202333650905,0.008403095416724682,-0.0036213744897395372,-1.0005232095718384,0.0016560317017138004,-0.001437036320567131,0.0008324735681526363
2024-05-13 17:26:15.799880,0.3469268657295155,0.18250154738504323,179.84325216750455,0.007868241518735886,-0.004298404324799776,-1.000894546508789,0.0004550777666736394,-0.0018887958722189069,0.0014349431730806828
2024-05-13 17:26:15.811907,0.3467393023316046,0.18216183885532763,179.8579097534634,0.008144479244947433,-0.0038665863685309887,-1.000450849533081,0.000526099291164428,-0.0018926564371213317,0.0023273881524801254
2024-05-13 17:26:15.834257,0.3471811301935398,0.1831426246716724,179.87372847158113,0.008264494128525257,-0.0038626096211373806,-1.0013071298599243,0.00016546959523111582,-0.0019847757648676634,0.0016067515825852752
2024-05-13 17:26:15.854782,0.3467295372955256,0.18320505686955454,179.8886319443501,0.008387450128793716,-0.0034667025320231915,-1.0005742311477661,-0.00016418042650911957,-0.0015645829262211919,0.0013955801259726286
2024-05-13 17:26:15.871984,0.3464742056144435,0.18393686094631115,179.8990411526452,0.00847933255136013,-0.004052395466715097,-1.0006599426269531,0.0004436180752236396,-0.0008960673585534096,0.0014862059615552425
2024-05-13 17:26:15.896681,0.34675346963804704,0.18375418006643976,179.91096666293603,0.008065075613558292,-0.0039457892999053,-1.0001685619354248,0.0014182504964992404,-0.0021047936752438545,0.001364321680739522
2024-05-13 17:26:15.914568,0.34581117033684977,0.1844282477003686,179.92550130548983,0.008270260877907276,-0.003826854983344674,-1.0006591081619263,-2.2595238988287747e-05,-0.0013086983235552907,0.0009512024116702378
2024-05-13 17:26:15.932653,0.34621065636201614,0.18379182614815417,179.94129270285092,0.00831542070955038,-0.00401612464338541,-1.000797152519226,0.0005922886193729937,-0.002174962544813752,0.0021476042456924915
2024-05-13 17:26:15.948294,0.3464718043760634,0.1838303660241545,179.9538875716804,0.00880307238548994,-0.004363386891782284,-1.0009618997573853,0.0008398715290240943,-0.0023082823026925325,0.0011665074853226542
2024-05-13 17:26:15.974567,0.34827529448206407,0.18286797636184382,179.9653486291077,0.008953808806836605,-0.004644723143428564,-1.0008505582809448,0.0008924046996980906,-0.0029302069451659918,0.000825967057608068
2024-05-13 17:26:15.991961,0.34937644904231707,0.1809383678800359,179.97833964890904,0.00820114929229021,-0.004375409800559282,-1.0004240274429321,0.0011486466974020004,-0.002945109736174345,0.001754249446094036
2024-05-13 17:26:16.008127,0.34982489365001074,0.17936546335958922,179.99100281963027,0.008207234553992748,-0.0046129473485052586,-1.0011569261550903,0.0017466802382841706,-0.003951980732381344,0.0009981305338442326
2024-05-13 17:26:16.034748,0.3508516898617605,0.17712361384709122,179.99962251836283,0.008413459174335003,-0.004069507587701082,-0.9998136758804321,0.0016493501607328653,-0.003667868208140135,0.0008719423785805702
2024-05-13 17:26:16.052499,0.3514455694740078,0.17430990941437652,-179.99089353660355,0.007950909435749054,-0.0051519679836928844,-1.001146912574768,0.001392450649291277,-0.0037253100890666246,0.0001183739586849697
2024-05-13 17:26:16.076638,0.3522977956555256,0.17196963580872157,-179.98048432830845,0.00831278320401907,-0.004706216976046562,-1.0004030466079712,0.0014870465965941548,-0.0041042803786695,-0.0013797187712043524
2024-05-13 17:26:16.094685,0.3534092755408129,0.16960474950967078,-179.9738180636785,0.00758711202070117,-0.006079571321606636,-1.0011671781539917,0.0012433551019057631,-0.0032580660190433264,-0.0015550593379884958
2024-05-13 17:26:16.105098,0.3545582947861089,0.1674268529793623,-179.96537594986438,0.007783190812915564,-0.00462536932900548,-1.000986099243164,0.0020697019062936306,-0.003521567676216364,-0.002014213940128684
2024-05-13 17:26:16.136636,0.35505532445035953,0.16587682692459252,-179.95592296805307,0.008021343499422073,-0.004584533628076315,-1.0003776550292969,0.001655798521824181,-0.003896904643625021,-0.0030686790123581886
2024-05-13 17:26:16.154379,0.35574389289606145,0.16405743528443037,-179.94741255234723,0.007911495864391327,-0.004816253669559956,-1.0008004903793335,0.0006612903671339154,-0.0034643206745386124,-0.002432597102597356
2024-05-13 17:26:16.164056,0.3555037690580532,0.16346255515619135,-179.94261775954988,0.008055674843490124,-0.007283017039299011,-0.9995103478431702,-0.0004157641960773617,-0.002393528586253524,-0.004091957118362188
2024-05-13 17:26:16.196749,0.35439541078265996,0.16184015844468855,-179.9410194952841,0.0067257508635520935,-0.005929361563175917,-1.0024065971374512,-0.001105012372136116,-0.002585741225630045,-0.0035368141252547503
2024-05-13 17:26:16.209954,0.35382549019336057,0.16132593324559386,-179.93368387211552,0.007100233342498541,-0.0036568662617355585,-1.0000196695327759,0.00014842447126284242,-0.002793282736092806,-0.004630419425666332
2024-05-13 17:26:16.232591,0.35347744403038084,0.1610372910520947,-179.9214988146362,0.007634459994733334,-0.0021317547652870417,-1.0018863677978516,0.0008820086368359625,-0.0029852217994630337,-0.005613442976027727
2024-05-13 17:26:16.256870,0.35351541027721256,0.16114343912870757,-179.91629421048864,0.008956512436270714,-0.004418049938976765,-1.0008190870285034,0.0005191256059333682,-0.0025109024718403816,-0.004981571808457375
2024-05-13 17:26:16.271539,0.35330925062206925,0.15999855534951063,-179.91641715389372,0.007350388914346695,-0.005957193672657013,-1.0007834434509277,-0.0007003428181633353,-0.0023285557981580496,-0.004808171186596155
2024-05-13 17:26:16.292582,0.3531797705125299,0.15867734063193628,-179.91852085215808,0.007012886460870504,-0.004768849350512028,-1.0013527870178223,-0.0003901389136444777,-0.002265115501359105,-0.006007258780300617
2024-05-13 17:26:16.316799,0.35326616173336,0.15758535079816727,-179.91684062562226,0.007030774373561144,-0.0033453672658652067,-1.0009922981262207,0.0008941334672272205,-0.0015932980459183455,-0.006243887357413769
2024-05-13 17:26:16.334079,0.35233963056419193,0.15546499060748822,-179.9099967760739,0.006695484276860952,-0.001448530936613679,-1.0015733242034912,0.0012673423625528812,-0.003405124181881547,-0.00774768553674221
2024-05-13 17:26:16.337179,0.35477683415912287,0.15518626019241352,-179.91298839893037,0.00887568760663271,-0.0038369083777070045,-1.0004273653030396,0.0027936864644289017,-0.0019455916481092572,-0.010928312316536903
2024-05-13 17:26:16.376660,0.3538394173759651,0.15546342980254116,-179.9160756444352,0.009117250330746174,-0.0008890967583283782,-0.9991934895515442,0.0010651270858943462,-0.0016996449558064342,-0.013259420171380043
2024-05-13 17:26:16.385000,0.35227949288298405,0.15603299020608355,-179.92300145625362,0.007932995446026325,-0.0020287204533815384,-1.000687599182129,0.00020383525406941772,-0.000919755722861737,-0.01487923227250576
2024-05-13 17:26:16.397531,0.35085795976197515,0.15673875418662947,-179.93584221189323,0.007516064681112766,-0.00017766290693543851,-1.0003622770309448,0.0001967056014109403,-0.0010180516401305795,-0.01828254759311676
2024-05-13 17:26:16.436659,0.35048293968785915,0.15767132847238746,-179.94910643926139,0.007038702256977558,-0.0008711112895980477,-1.0009558200836182,0.0010906185489147902,-0.00019755771791096777,-0.018965046852827072
2024-05-13 17:26:16.444854,0.35156299003079383,0.16055847077889301,-179.9663731574832,0.008022819645702839,-0.0015963728073984385,-1.000417947769165,0.0019256770610809326,0.0001223103899974376,-0.02102900855243206
2024-05-13 17:26:16.478661,0.3519597279720364,0.16273128468796363,-179.9934480273531,0.007028600666671991,-0.003454298945143819,-1.0020073652267456,0.0009251357987523079,0.0005117869004607201,-0.023295696824789047
2024-05-13 17:26:16.490903,0.3532661350529336,0.16461876477641435,179.97813474323397,0.008438188582658768,-0.003349633887410164,-1.0012891292572021,0.0016279838746413589,0.00014716628356836736,-0.02542751096189022
2024-05-13 17:26:16.514731,0.35446421960246255,0.1651819618982495,179.94752183537395,0.007611878216266632,-0.0038978776428848505,-1.0015943050384521,0.001735323341563344,-0.0001836780138546601,-0.026083115488290787
2024-05-13 17:26:16.532604,0.3548050887307285,0.1656539119616415,179.9139856065492,0.007862262427806854,-0.0037920165341347456,-1.0004268884658813,0.0017908524023368955,-0.0009069247171282768,-0.026818791404366493
2024-05-13 17:26:16.552786,0.3564592484899145,0.16500733850716462,179.87643322649245,0.009336348623037338,-0.005880406126379967,-1.0015053749084473,0.00145768653601408,-0.001788261579349637,-0.026012908667325974
2024-05-13 17:26:16.574629,0.3577319048313583,0.1644562809793621,179.84076597864666,0.008630015887320042,-0.004603897221386433,-1.0010743141174316,0.00105893739964813,-0.001792752300389111,-0.029956497251987457
2024-05-13 17:26:16.591869,0.35712671271829816,0.16315311557027803,179.80915586316783,0.008102815598249435,-0.0025238755624741316,-0.9998664259910583,0.0007282381411641836,-0.003357039764523506,-0.030917556956410408
2024-05-13 17:26:16.615522,0.3567185021936841,0.16247283139698743,179.77575623812646,0.006199948489665985,-0.0021651575807482004,-1.0008817911148071,0.0017171658109873533,-0.003011243650689721,-0.03129780292510986
2024-05-13 17:26:16.634692,0.35644574819413316,0.1633337153768867,179.7381901976914,0.007942289113998413,-0.0043596611358225346,-1.0002957582473755,0.0006025664042681456,-0.0022470143157988787,-0.03118644654750824
2024-05-13 17:26:16.652389,0.35535022320386017,0.16413566229476817,179.70750898793972,0.006333718542009592,-0.004527871962636709,-1.0016891956329346,0.00013865219079889357,-0.0017020485829561949,-0.02977573499083519
2024-05-13 17:26:16.668157,0.35408754534190695,0.1668023975984086,179.67725124991654,0.009126429446041584,-0.0036902427673339844,-1.000810146331787,5.748118564952165e-05,-0.0003930184757336974,-0.03237609937787056
2024-05-13 17:26:16.699851,0.35386593771985175,0.1693966288431837,179.6474443043786,0.010140882804989815,-0.0035595016088336706,-1.0011107921600342,0.0008138166158460081,-0.0006210076389834285,-0.03187528997659683
2024-05-13 17:26:16.711889,0.3546233416657827,0.17073473227069796,179.61420860387733,0.010359988547861576,-0.005595840979367495,-1.0009208917617798,0.0010521855438128114,-0.0013906611129641533,-0.032548803836107254
2024-05-13 17:26:16.727418,0.3536015080133518,0.16940092439184143,179.58274875256026,0.008086475543677807,-0.004288961179554462,-1.0005340576171875,0.00014340406050905585,-0.0031065051443874836,-0.0348348505795002
2024-05-13 17:26:16.754756,0.3516421775364837,0.17048969923422377,179.55511380717837,0.007747132796794176,-0.0012891656951978803,-1.0008585453033447,-0.0002450264000799507,-0.0012865725439041853,-0.03711486980319023
2024-05-13 17:26:16.772312,0.3499382321015506,0.17244717542145388,179.52690512590624,0.008996985852718353,-0.0019524472299963236,-1.001206874847412,0.000438622257206589,-0.0009270792943425477,-0.03609718754887581
2024-05-13 17:26:16.796754,0.34893320711778025,0.17271894224522635,179.49883304841748,0.007944316603243351,-0.0029335066210478544,-1.0013325214385986,-0.00016098647029139102,-0.0020122299902141094,-0.03561531379818916
2024-05-13 17:26:16.814635,0.35027928799280167,0.17294525896254914,179.47332912205664,0.008185758255422115,-0.004702098201960325,-0.9996371865272522,0.000270532735157758,-0.0019807908684015274,-0.0351017490029335
2024-05-13 17:26:16.823432,0.34902960349852735,0.171539707416981,179.44792081834422,0.007426314987242222,-0.004830230493098497,-1.0024272203445435,-0.0010660800617188215,-0.002186381723731756,-0.03532233089208603
2024-05-13 17:26:16.856405,0.34839703726793425,0.17135130358563708,179.41467145746458,0.009007478132843971,-0.0038319150917232037,-0.9985511302947998,0.0008264693897217512,-0.0031365149188786745,-0.03704340383410454
2024-05-13 17:26:16.874759,0.3493815183233417,0.16969198116393389,179.38381266279447,0.006309978663921356,-0.00353804649785161,-1.0002124309539795,0.0021800913382321596,-0.003497153054922819,-0.038071393966674805
2024-05-13 17:26:16.884238,0.35204257069614925,0.17116759550934754,179.35052232077982,0.007918021641671658,-0.003227113513275981,-0.999444842338562,0.003485096851363778,-0.001014177454635501,-0.03998342528939247
2024-05-13 17:26:16.915810,0.3541346896554359,0.17296673670583765,179.3100056386233,0.007379492279142141,-0.005017277784645557,-1.0009311437606812,0.00248506641946733,9.09860318643041e-06,-0.03984109312295914
2024-05-13 17:26:16.934637,0.35595178677892375,0.174649911428783,179.27002171122206,0.008665574714541435,-0.005117602646350861,-1.0002390146255493,0.001608008868061006,-0.0006091836839914322,-0.03955819085240364
2024-05-13 17:26:16.946198,0.35535630634108967,0.17472904557361996,179.2317453311133,0.006621271837502718,-0.002419186756014824,-1.000657320022583,0.001411178382113576,-0.0014157505938783288,-0.04017044976353645
2024-05-13 17:26:16.976759,0.3546291846791742,0.17647989519824395,179.1887424600989,0.010255574248731136,-0.0019965122919529676,-1.0017386674880981,0.0011980190174654126,-0.0009474622784182429,-0.040391482412815094
2024-05-13 17:26:16.990992,0.3564793655314543,0.1771664892923889,179.1436222304418,0.00819921400398016,-0.002550962846726179,-1.0003063678741455,0.0028444817289710045,-0.0022709034383296967,-0.042325012385845184
2024-05-13 17:26:17.012585,0.35800025656054574,0.17593241284758512,179.09484101938958,0.008610793389379978,-0.003596256021410227,-1.0019272565841675,0.0027524279430508614,-0.002809157595038414,-0.04329569637775421
2024-05-13 17:26:17.036695,0.35875899452779897,0.17495820375635915,179.03623799631086,0.007545269560068846,-0.0049292282201349735,-0.9999608993530273,0.0017534414073452353,-0.0028324942104518414,-0.04278396815061569
2024-05-13 17:26:17.053056,0.35927555426420765,0.17392329669497,178.98156916219406,0.007485679350793362,-0.005134633742272854,-1.0021642446517944,0.0016390593955293298,-0.0032150994520634413,-0.0415165089070797
2024-05-13 17:26:17.072628,0.35867300351336556,0.17169761552089788,178.93312946060036,0.007409016136080027,-0.0012486233608797193,-0.9995290040969849,0.0017248837975785136,-0.0016324232565239072,-0.042136650532484055
2024-05-13 17:26:17.096762,0.3578244058698444,0.1745666951786999,178.88575526851713,0.010732991620898247,-0.002533866325393319,-1.001653790473938,0.0011927441228181124,-0.0004643159918487072,-0.042118676006793976
2024-05-13 17:26:17.104140,0.35854771223077814,0.17651019082247266,178.83140062310218,0.010053898207843304,-0.006082408595830202,-0.9997864961624146,0.0009878238197416067,-0.0006705233245156705,-0.04237952455878258
2024-05-13 17:26:17.132588,0.3582379524797475,0.17730889606854103,178.77674544936372,0.008634563535451889,-0.006088151130825281,-1.0004006624221802,0.00021799116802867502,-0.0017666317289695144,-0.044232916086912155
2024-05-13 17:26:17.156415,0.3556097437118942,0.1745196976075164,178.72456280410483,0.006029904820024967,-0.004546704236418009,-1.000641107559204,-0.0014450494199991226,-0.002337103011086583,-0.047339703887701035
2024-05-13 17:26:17.164773,0.35388629488522955,0.17525722463574556,178.68183314065723,0.007113483734428883,-0.0030284274835139513,-1.0003734827041626,-8.927623275667429e-05,-0.001875689602456987,-0.04641009867191315
2024-05-13 17:26:17.177886,0.350563567936577,0.17328247287239207,178.63695879781025,0.005560771096497774,-0.004522770177572966,-1.0024415254592896,-0.0017985563026741147,-0.0027858929242938757,-0.0462469756603241
2024-05-13 17:26:17.216541,0.34841707426819474,0.173651676613543,178.5949941155497,0.009317822754383087,-0.003173271892592311,-1.0002517700195312,1.6369871445931494e-05,-0.001783628249540925,-0.04691123589873314
2024-05-13 17:26:17.225128,0.3469904718661612,0.17515499858182015,178.55483260323,0.008787211962044239,-0.0036104547325521708,-1.0011495351791382,-0.0001202576095238328,-0.0010276597458869219,-0.047570038586854935
2024-05-13 17:26:17.252667,0.3453254798538384,0.17541101061377662,178.5137695059399,0.008941788226366043,-0.0033041287679225206,-1.0000801086425781,-0.0003139358013868332,-0.0020356166642159224,-0.04764474928379059
2024-05-13 17:26:17.272673,0.34470582694964486,0.17177434842735473,178.4672149365571,0.004463756922632456,-0.005553161259740591,-1.001758337020874,-0.0008673840202391148,-0.0025407206267118454,-0.04966484010219574
2024-05-13 17:26:17.294780,0.344002824393236,0.17123301591499157,178.4181741783164,0.006453624926507473,-0.004793819505721331,-1.0007120370864868,-3.2608404580969363e-06,-0.000836194260045886,-0.047665417194366455
2024-05-13 17:26:17.312648,0.34365517843665294,0.1737999664237263,178.37666028854107,0.007206830661743879,-0.003292120061814785,-1.0013498067855835,0.0007380662718787789,-8.683500345796347e-05,-0.04709608852863312
2024-05-13 17:26:17.333924,0.3440283308809178,0.1761638922274251,178.34204488982743,0.010645917616784573,-0.0009049794753082097,-0.9995620250701904,0.0013320522848516703,7.345738413278013e-05,-0.04515260085463524
2024-05-13 17:26:17.354620,0.34412200585816743,0.1772921274205201,178.30058564156545,0.011599489487707615,-0.0031658592633903027,-1.0001908540725708,0.0022453165147453547,-0.0009367952588945627,-0.04468890279531479
2024-05-13 17:26:17.378740,0.34595572488733073,0.17761494724029578,178.25037009078753,0.007917480543255806,-0.003519572550430894,-1.000495195388794,0.002974550472572446,-0.001424847636371851,-0.04829396679997444
2024-05-13 17:26:17.396400,0.3477619363968289,0.17658947170965505,178.19038736949648,0.006061364430934191,-0.005837227683514357,-1.001942753791809,0.0015127429505810142,-0.0018695767503231764,-0.050921738147735596
2024-05-13 17:26:17.414732,0.3476495851210675,0.17471210350282715,178.12782283669915,0.005577046424150467,-0.004126114305108786,-1.0011690855026245,0.0018858864204958081,-0.0023823732044547796,-0.05215297266840935
2024-05-13 17:26:17.432630,0.3469544799708864,0.17576562016166195,178.07543528576517,0.007833011448383331,-0.0016963051166385412,-1.0008244514465332,0.0009824602166190743,-0.0007238694233819842,-0.04990990832448006
2024-05-13 17:26:17.448484,0.34906631576531616,0.17586608530744194,178.01687324382146,0.0070944372564554214,-0.0037153351586312056,-1.0008217096328735,0.0026144329458475113,-0.0010345912305638194,-0.050360579043626785
2024-05-13 17:26:17.474629,0.3521054297808545,0.17632903072690864,177.95331150340533,0.008997244760394096,-0.006364046595990658,-1.0008257627487183,0.002125461120158434,-0.0025251489132642746,-0.04973635450005531
2024-05-13 17:26:17.492008,0.3524579048946242,0.17469198646128734,177.8909108951481,0.006779899355024099,-0.005440186709165573,-1.0003321170806885,0.0014395650941878557,-0.0020855371840298176,-0.04979564622044563
2024-05-13 17:26:17.507824,0.3524038503506459,0.17509998354248982,177.8263792678698,0.007516155950725079,-0.004498298279941082,-1.0005348920822144,0.0005190594820305705,-0.002235042629763484,-0.05179360881447792
2024-05-13 17:26:17.534763,0.3517956433493974,0.17813452186489276,177.76631458430873,0.009845848195254803,-0.0014087165473029017,-1.0016074180603027,0.0012265355326235294,-1.082264498108998e-05,-0.05136292800307274
2024-05-13 17:26:17.552583,0.35088253243473133,0.1792698006905694,177.7128615238642,0.009000379592180252,-0.0011695133289322257,-1.0007129907608032,0.002283986657857895,-0.000930585665628314,-0.05185901001095772
2024-05-13 17:26:17.576832,0.3508316261810736,0.17962957290097187,177.66033736914682,0.010216392576694489,-0.003513956442475319,-1.000840663909912,0.00028019314049743116,-0.001220009638927877,-0.04963953420519829
2024-05-13 17:26:17.600745,0.34870781087516983,0.1795822951853107,177.60271789330858,0.00572943827137351,-0.0067884065210819244,-1.0008556842803955,-0.0013673962093889713,-0.0009059308213181794,-0.05105578526854515
2024-05-13 17:26:17.612670,0.34678996846142435,0.17696306438095624,177.5485271724337,0.007009545341134071,-0.005548044107854366,-0.9997559189796448,-0.0006829335470683873,-0.0024393494240939617,-0.05283719301223755
2024-05-13 17:26:17.635180,0.3430083114974851,0.17539156058289795,177.5004426406768,0.006741030607372522,-0.0008768690750002861,-1.0006378889083862,-0.00041960462112911046,-0.0024755592457950115,-0.05331940948963165
2024-05-13 17:26:17.646581,0.3423584563505554,0.176364515694081,177.4506505616274,0.009939192794263363,-0.0020151096396148205,-1.0012277364730835,0.0008644399931654334,-0.0021695417817682028,-0.05339406430721283
2024-05-13 17:26:17.672668,0.3433970186303676,0.17569515715541972,177.39625493507742,0.006857419852167368,-0.004887275863438845,-1.0007514953613281,0.0013306715991348028,-0.001762127154506743,-0.05436274781823158
2024-05-13 17:26:17.688900,0.3435902115982585,0.17399576073319561,177.3380207422139,0.006671731825917959,-0.006101788487285376,-1.0010713338851929,0.0005863967235200107,-0.002378921490162611,-0.05468106269836426
2024-05-13 17:26:17.714601,0.34197311095140503,0.17485369652597268,177.28264156842343,0.007756700273603201,-0.0034794104285538197,-1.0004686117172241,-0.0004286774783395231,-0.0014105886220932007,-0.05547770485281944
2024-05-13 17:26:17.732531,0.339991555679308,0.17821285559693634,177.23025401748944,0.010115212760865688,-0.0017844239482656121,-1.0011038780212402,-0.0008972739451564848,-0.000667166372295469,-0.05475606769323349
2024-05-13 17:26:17.742575,0.34090098469512464,0.18004809541040703,177.17732005142184,0.009701916016638279,-0.001477140816859901,-1.0011200904846191,0.0017760113114491105,-0.0015045026084408164,-0.05323948338627815
2024-05-13 17:26:17.774513,0.3398906503064916,0.18127695583184075,177.11851212266802,0.00996861420571804,-0.0015576063888147473,-1.0010160207748413,0.0011262159096077085,-0.001139063504524529,-0.05287603288888931
2024-05-13 17:26:17.790058,0.3396732048309619,0.18220438079529477,177.05122109896507,0.005787622183561325,-0.004155830945819616,-1.0022151470184326,0.000541707850061357,-0.00027739760116674006,-0.05373159795999527
2024-05-13 17:26:17.802977,0.3397784591132889,0.18043436128426976,176.98488630174592,0.005741504952311516,-0.0034872896503657103,-0.9993507266044617,0.0017662537284195423,-0.002124154707416892,-0.055354926735162735
2024-05-13 17:26:17.834597,0.3405523782431895,0.18113074709492016,176.9160106741555,0.005802404135465622,-0.004411204252392054,-1.0019631385803223,0.0011434415355324745,-0.0004185256257187575,-0.05601560324430466
2024-05-13 17:26:17.849951,0.3423148605337437,0.1815684261505431,176.8447171595989,0.00830605998635292,-0.005252066068351269,-1.0011351108551025,0.0019067926332354546,-0.0020013132598251104,-0.056050173938274384
2024-05-13 17:26:17.876836,0.34150481610643607,0.18338081417876337,176.77168877699313,0.00935460813343525,-0.005490618292242289,-1.0007238388061523,0.0002112047077389434,-0.0013647021260112524,-0.055963918566703796
2024-05-13 17:26:17.894223,0.34102270080056835,0.18426128159167354,176.70622824398774,0.009104441851377487,-0.0036227393429726362,-1.0008914470672607,0.00023441383382305503,-0.000863677472807467,-0.056551285088062286
2024-05-13 17:26:17.897467,0.3388353060384453,0.18467135974613877,176.63773510699085,0.008308026939630508,-0.0032744777854532003,-1.0006791353225708,0.00021036839461885393,-0.0016978372586891055,-0.05602576583623886
2024-05-13 17:26:17.936354,0.3362274811163963,0.18482421190924425,176.58193246147184,0.00767136923968792,-0.0017411867156624794,-1.0013222694396973,-0.0008272398263216019,-0.0017157277325168252,-0.05526665225625038
2024-05-13 17:26:17.946464,0.33519094654899395,0.1853690662378982,176.52057004196843,0.010024511255323887,-0.003464454784989357,-1.0013459920883179,3.1473624403588474e-05,-0.0026607434265315533,-0.053525298833847046
2024-05-13 17:26:17.958946,0.3337426262798339,0.18476124610283318,176.46635200033688,0.007562011014670134,-0.0014850413426756859,-1.0020246505737305,0.0002758295740932226,-0.002611630130559206,-0.0535937137901783
2024-05-13 17:26:17.996598,0.3329484033454084,0.1838584204925618,176.41750248739294,0.008753892965614796,-0.0004272288642823696,-0.9994287490844727,0.001093923463486135,-0.0025678593665361404,-0.05389121174812317
2024-05-13 17:26:18.005835,0.33317078469983047,0.1835321722379879,176.361781804144,0.005195538513362408,-0.003351404331624508,-0.999832808971405,0.000802691443823278,-0.0015706797130405903,-0.055450234562158585
2024-05-13 17:26:18.032624,0.33430523643228727,0.18242095915696502,176.29860255432138,0.006527905352413654,-0.004536821506917477,-0.9992879033088684,0.001611167099326849,-0.0021820846013724804,-0.05616847425699234
2024-05-13 17:26:18.052720,0.33526575846474677,0.18336575307803496,176.23669371968438,0.006790665443986654,-0.005296649411320686,-1.0007416009902954,0.0009652952430769801,-0.0005354810273274779,-0.05547910928726196
2024-05-13 17:26:18.074739,0.33698130988518354,0.18408937960408608,176.17792677206558,0.009046363644301891,-0.005313866306096315,-1.0019292831420898,0.002095625037327409,-0.0011649434454739094,-0.0544138140976429
2024-05-13 17:26:18.091903,0.3346140890488188,0.18606677272965766,176.12478790032287,0.011302576400339603,-0.0032634935341775417,-0.9985454082489014,3.659311914816499e-05,-0.0009895057883113623,-0.053626175969839096
2024-05-13 17:26:18.115426,0.3331640879127927,0.1868909844634078,176.0664307640543,0.009335629642009735,-0.002960867714136839,-1.0009797811508179,-0.00046007358469069004,-0.0013253666693344712,-0.0566200353205204
2024-05-13 17:26:18.134807,0.33156587700786255,0.186994277734391,176.00442630676892,0.009123705327510834,-0.0013649879256263375,-1.0002286434173584,0.0006564732175320387,-0.002146816346794367,-0.05916273221373558
2024-05-13 17:26:18.152479,0.3332617916344356,0.1867723099265788,175.94130169845965,0.008549966849386692,-0.0013130755396559834,-1.0022599697113037,0.003019466297701001,-0.0023425533436238766,-0.05866720527410507
2024-05-13 17:26:18.168261,0.33728581359220444,0.1843806498195901,175.87840931658218,0.0073113515973091125,-0.0034154781606048346,-1.0007070302963257,0.00388419721275568,-0.0028555109165608883,-0.05482885614037514
2024-05-13 17:26:18.194799,0.3404592902353216,0.18356357509991408,175.81383670816888,0.006786751560866833,-0.003763616783544421,-1.0007973909378052,0.0037069907411932945,-0.001785866916179657,-0.0542830191552639
2024-05-13 17:26:18.211913,0.344066323808176,0.18323017649105283,175.74963292997077,0.0064395577646791935,-0.003771756310015917,-1.0001314878463745,0.0039905970916152,-0.001599763985723257,-0.05495462939143181
2024-05-13 17:26:18.227852,0.34510565982035507,0.18390751247722126,175.6821370005927,0.007038429379463196,-0.004169703461229801,-1.0003706216812134,0.0019039275357499719,-0.0011123407166451216,-0.05454772338271141
2024-05-13 17:26:18.254700,0.3466335944820281,0.1832655547365194,175.609996542579,0.00852258875966072,-0.0060690888203680515,-1.0011018514633179,0.001887844642624259,-0.0018043172312900424,-0.0545797199010849
2024-05-13 17:26:18.272525,0.3476880049351488,0.18468968919910672,175.53569774478763,0.008181524462997913,-0.0068311914801597595,-1.000952959060669,0.001180411083623767,-0.0011916989460587502,-0.05496373772621155
2024-05-13 17:26:18.296556,0.34569852557639746,0.18669951238302265,175.47045577783567,0.01000120397657156,-0.001338885398581624,-1.0009708404541016,0.00027460791170597076,-0.0012605360243469477,-0.056981515139341354
2024-05-13 17:26:18.314735,0.3432314932647006,0.18696994518547283,175.41193471702698,0.007689209654927254,-0.0007989582954905927,-1.001387596130371,0.0009045804617926478,-0.002195930341258645,-0.05630269646644592
2024-05-13 17:26:18.329428,0.3433143893496663,0.1852973092309734,175.35531244880758,0.007354306057095528,-0.002861717250198126,-1.0008201599121094,0.0007389586535282433,-0.0026376231107860804,-0.05526158958673477
2024-05-13 17:26:18.356623,0.3431322420783238,0.18356808409198336,175.29496089730134,0.006612285040318966,-0.004904513247311115,-1.0012660026550293,0.0004428579122759402,-0.002728488529101014,-0.05578248202800751
2024-05-13 17:26:18.374229,0.34370731198992716,0.1834375901262391,175.23361213817628,0.007569790352135897,-0.004723527003079653,-1.0008041858673096,0.0013182326219975948,-0.0026858667843043804,-0.055371928960084915
2024-05-13 17:26:18.384759,0.34404938173738314,0.18272926482475438,175.17785047379232,0.009085125289857388,-0.00039602979086339474,-1.0004684925079346,0.0015872069634497166,-0.0033735514152795076,-0.05507649481296539
2024-05-13 17:26:18.416765,0.3438747850267247,0.18304914979762107,175.12646013047714,0.006889162119477987,-1.2757373042404652e-05,-1.0009889602661133,0.0027501508593559265,-0.00247951946221292,-0.05441272258758545
2024-05-13 17:26:18.434685,0.34527910927267635,0.18522400475931478,175.06832156026198,0.008230483159422874,-0.005376250483095646,-1.0003418922424316,0.001010891399346292,-0.0007007757667452097,-0.05272548645734787
2024-05-13 17:26:18.446250,0.3461717296198324,0.18327606682453887,175.00301129141832,0.00420320313423872,-0.008532769046723843,-1.0014053583145142,-0.00047783105401322246,-0.0015707126585766673,-0.052151747047901154
2024-05-13 17:26:18.475771,0.34213655524380937,0.18353274586715648,174.9409931737546,0.008363408967852592,-0.0047033242881298065,-1.000820517539978,-0.0016031848499551415,-0.0025492447894066572,-0.0541948638856411
2024-05-13 17:26:18.500601,0.3394595479759875,0.1845738161070545,174.8823901506759,0.009669329039752483,0.00014793931040912867,-1.0016525983810425,-0.0009136665030382574,-0.0014145418535917997,-0.055905260145664215
2024-05-13 17:26:18.508140,0.33878642749719745,0.1851351989598914,174.8223937690065,0.011287256143987179,0.000754845910705626,-1.000447154045105,0.0018744757398962975,-0.002334945136681199,-0.056073956191539764
2024-05-13 17:26:18.536710,0.3400675415338244,0.1838304994262867,174.7507177638564,0.007191818207502365,-0.0030300519429147243,-0.9995017051696777,0.0011169402860105038,-0.0027298578061163425,-0.05897015333175659
2024-05-13 17:26:18.553105,0.3434240192219303,0.18312296119738217,174.66790855035916,0.005430684424936771,-0.008099174126982689,-1.0014927387237549,0.001912164269015193,-0.0025782103184610605,-0.059366870671510696
2024-05-13 17:26:18.563530,0.34409479182319314,0.1830444673827799,174.5997705831991,0.008590610697865486,-0.005198371130973101,-0.999610424041748,0.00207599182613194,-0.0027270831633359194,-0.05506236106157303
2024-05-13 17:26:18.596239,0.34299598514046736,0.18469958763731795,174.54262922060278,0.010505895130336285,-0.001465099398046732,-1.001229166984558,0.00110126961953938,-0.0016130441799759865,-0.05226370319724083
2024-05-13 17:26:18.605890,0.34158904621272407,0.1856035071450736,174.48230498985322,0.009468123316764832,0.00015775578503962606,-1.0000886917114258,0.0009801625274121761,-0.001400812529027462,-0.05304122716188431
2024-05-13 17:26:18.632625,0.34154838524282133,0.18614281194502694,174.41435826798994,0.008182816207408905,-0.004868145100772381,-1.0020118951797485,1.642774441279471e-05,-0.0011358004994690418,-0.05373977869749069
2024-05-13 17:26:18.656754,0.34123638433596926,0.18552293225720862,174.34391169689044,0.005587409716099501,-0.00891457125544548,-1.0010403394699097,-0.0012963582994416356,-0.0014396534534171224,-0.053948160260915756
2024-05-13 17:26:18.664992,0.3377225988535415,0.18381357069570714,174.28291810760223,0.004127131775021553,-0.005282868631184101,-1.0005605220794678,-0.0021482929587364197,-0.0018934976542368531,-0.05366099253296852
2024-05-13 17:26:18.677850,0.33397250483408714,0.18638448324776902,174.23121357558523,0.008620239794254303,0.0007843642379157245,-1.0010902881622314,-0.001418684027157724,-0.0006261677481234074,-0.0554531067609787
2024-05-13 17:26:18.715962,0.33243723305514167,0.18812240620578025,174.1773916849255,0.011721606366336346,-0.0008686749497428536,-1.0012401342391968,-0.0003878272545989603,-0.0018825428560376167,-0.054325394332408905
2024-05-13 17:26:18.725532,0.3346457587150094,0.18661189386257607,174.11600194466544,0.009588072076439857,-0.00480896420776844,-1.0009911060333252,0.0010915694292634726,-0.00323287071660161,-0.05328522250056267
2024-05-13 17:26:18.752681,0.33663699898190613,0.18404138151691085,174.05172986457563,0.004862106405198574,-0.007439825218170881,-0.9997645616531372,0.000713597983121872,-0.002345639979466796,-0.053642090409994125
2024-05-13 17:26:18.772486,0.3353192794001961,0.18355195577419714,173.9990281249398,0.0048077292740345,-0.0030750480946153402,-1.0012978315353394,0.0009026061743497849,-0.0017371902940794826,-0.05259708687663078
2024-05-13 17:26:18.794616,0.3339201311569749,0.18513486545456082,173.94287030958395,0.008772742003202438,-0.0007827086374163628,-1.000154733657837,0.0004075070610269904,-0.001636838773265481,-0.05099611356854439
2024-05-13 17:26:18.812678,0.3337412122172323,0.1849467017470549,173.8880785320621,0.009955440647900105,-0.00047889555571600795,-1.0020908117294312,0.002174869179725647,-0.002268971409648657,-0.050705861300230026
2024-05-13 17:26:18.834362,0.33701383332502044,0.18597467189756825,173.82081482911585,0.011339429765939713,-0.005443538539111614,-1.0018937587738037,0.002236054977402091,-0.0022792979143559933,-0.051030587404966354
2024-05-13 17:26:18.854785,0.3384119410316103,0.18535982147013488,173.7583459189669,0.006412498187273741,-0.004683502018451691,-1.001076579093933,0.001944933203049004,-0.0016398921143263578,-0.05010148510336876
2024-05-13 17:26:18.871770,0.33776339322557647,0.18165789896062765,173.70216078285438,0.0023665144108235836,-0.002935961587354541,-1.001038908958435,0.0008342484361492097,-0.002467541955411434,-0.05059356242418289
2024-05-13 17:26:18.886810,0.3377417287193028,0.18067068316150958,173.64447300512444,0.0049508437514305115,-0.0009291140595450997,-0.9982637763023376,0.0017900342354550958,-0.0011760370107367635,-0.052489861845970154
2024-05-13 17:26:18.913698,0.3393251586679822,0.1821792878542229,173.582345604434,0.0076631829142570496,-0.0034752232022583485,-1.0006479024887085,0.0017655408009886742,-0.0007392129627987742,-0.051747214049100876
2024-05-13 17:26:18.931719,0.3420447212159844,0.18405518863759635,173.5141803165173,0.013979912735521793,-0.006001985166221857,-0.9997926950454712,0.0023060154635459185,-0.0019282747525721788,-0.05073138698935509
2024-05-13 17:26:18.974503,0.34571549432761667,0.18604903024607147,173.39174234545564,0.008160286583006382,-0.001685868133790791,-1.001953363418579,0.00201248936355114,-0.001513744588010013,-0.048326525837183
2024-05-13 17:26:18.992546,0.3452141957951348,0.18347004686500987,173.33468294512934,0.003528167959302664,-0.0036255400627851486,-0.9995184540748596,0.0014365891693159938,-0.0017674602568149567,-0.047236789017915726
2024-05-13 17:26:19.016701,0.34421133192590647,0.1855361524085123,173.2803966016061,0.007946033030748367,-0.002771087922155857,-1.001222848892212,0.0013531935401260853,-0.0007176939398050308,-0.04687132686376572
2024-05-13 17:26:19.034634,0.34401968642274944,0.18675950332188504,173.2236787107383,0.010228144936263561,-0.003985905554145575,-1.001264214515686,0.0005356317851692438,-0.0014244347112253308,-0.04846969246864319
2024-05-13 17:26:19.043530,0.3438177422749845,0.18740531638420826,173.16579968771163,0.012545946054160595,-0.0027342147659510374,-1.0019441843032837,0.0009724150877445936,-0.002728841034695506,-0.049362923949956894
2024-05-13 17:26:19.076648,0.3459541774225969,0.1851542221039469,173.1111445139732,0.007487606722861528,-0.00422575231641531,-1.0017410516738892,0.0022588782012462616,-0.0026898544747382402,-0.04712507873773575
2024-05-13 17:26:19.094780,0.3466152116682072,0.18088224560300808,173.05930337817279,0.0021049906499683857,-0.005349606275558472,-1.0011557340621948,0.0008952534408308566,-0.0036528471391648054,-0.046298522502183914
2024-05-13 17:26:19.104793,0.3458763239382293,0.17919961782880486,173.01206578987296,0.003388742683455348,-0.002713065827265382,-0.9993618726730347,0.0013163209659978747,-0.001872991444543004,-0.04547769948840141
2024-05-13 17:26:19.136274,0.34585980875425965,0.18066690788116754,172.9690355981019,0.004609273746609688,-0.0011576778488233685,-1.0002187490463257,0.001100831083022058,-0.0009437088156118989,-0.045610666275024414
2024-05-13 17:26:19.154389,0.3464738054080468,0.1836146280959173,172.91601966976424,0.012258711270987988,-0.004661795683205128,-1.0001004934310913,0.0017666174098849297,-0.001109288539737463,-0.0462348535656929
2024-05-13 17:26:19.178276,0.3482867403850091,0.18518240997448646,172.86304472256163,0.012330625206232071,-0.005656625144183636,-1.0004007816314697,0.0014713016571477056,-0.0018620709888637066,-0.04346289113163948
2024-05-13 17:26:19.196681,0.34903435261443466,0.18371371919973536,172.8111216244912,0.0057545555755496025,-0.00554128410294652,-1.001501441001892,0.0010235828813165426,-0.002265014685690403,-0.042840033769607544
2024-05-13 17:26:19.211298,0.3475945167208842,0.18183497695094553,172.76917060260897,0.005308968480676413,-0.00112835259642452,-1.00111722946167,0.001042759045958519,-0.002537473803386092,-0.041454192250967026
2024-05-13 17:26:19.232595,0.34654589592030216,0.18084837480163568,172.72668682597148,0.0057706390507519245,3.844495222438127e-05,-1.0007927417755127,0.0012413081713020802,-0.0023889755830168724,-0.04071468487381935
2024-05-13 17:26:19.256783,0.34506710660414147,0.18094382402724396,172.67608878460004,0.008069882169365883,-0.001690175849944353,-1.001796841621399,0.00042215402936562896,-0.002283340087160468,-0.042388930916786194
2024-05-13 17:26:19.271424,0.34681945033264644,0.18044794162133046,172.61428923298976,0.010389519855380058,-0.005419150926172733,-0.9995590448379517,0.002175151603296399,-0.0030621185433119535,-0.043159421533346176
2024-05-13 17:26:19.277163,0.3502511935037547,0.17976008020692935,172.5497985868465,0.009860504418611526,-0.005722482223063707,-1.0012497901916504,0.0024196691811084747,-0.0038057942874729633,-0.04272462800145149
2024-05-13 17:26:19.316786,0.34964341338932936,0.17580474700704407,172.49787548877606,0.006081772036850452,-0.002353982301428914,-1.0017915964126587,0.001433285535313189,-0.0041937814094126225,-0.041879814118146896
2024-05-13 17:26:19.334043,0.3508256230851234,0.17405655208485135,172.44619827751575,0.006748480722308159,-0.0026515722274780273,-1.0006897449493408,0.0016015637665987015,-0.0026954805944114923,-0.04118390008807182
2024-05-13 17:26:19.352528,0.3509909616878053,0.17050929600744788,172.3963242361963,0.005833741277456284,-0.004316510166972876,-1.000616431236267,-0.0002988724736496806,-0.0034720618277788162,-0.03759913891553879
2024-05-13 17:26:19.376791,0.3512788701695772,0.17191057868478477,172.34502951552952,0.009613106027245522,-0.004847702104598284,-0.9996268153190613,0.00041062082163989544,-0.0018172994023188949,-0.037548985332250595
2024-05-13 17:26:19.396437,0.3507999298344565,0.17395456615476396,172.2962483044773,0.007883155718445778,-0.0026841447688639164,-1.0000911951065063,0.0007742884918116033,-0.0005057308007963002,-0.0392991304397583
2024-05-13 17:26:19.412674,0.3508031048052035,0.17585876153038268,172.24892875390745,0.009590959176421165,-0.002116196556016803,-1.0006613731384277,0.00207299692556262,-0.0011374595342203975,-0.03925508260726929
2024-05-13 17:26:19.433757,0.350534512952178,0.1764208780949468,172.20368558084527,0.008334101177752018,-0.0038817664608359337,-1.0004699230194092,0.0008178369025699794,-0.002323451917618513,-0.03912097215652466
2024-05-13 17:26:19.454602,0.35165543770842705,0.17666876593705066,172.157513502056,0.008042947389185429,-0.005293464288115501,-1.0018203258514404,0.0014691220130771399,-0.0018121986649930477,-0.04057622328400612
2024-05-13 17:26:19.472657,0.3538477683494425,0.17562099891011484,172.11300798942418,0.009060586802661419,-0.005307513754814863,-1.0017571449279785,0.00260398187674582,-0.0025391411036252975,-0.03731050714850426
2024-05-13 17:26:19.490382,0.35435192168755403,0.1732464943173305,172.07408957153345,0.009094499982893467,-0.0014632600359618664,-1.0014280080795288,0.002189425053074956,-0.003985398914664984,-0.036292944103479385
2024-05-13 17:26:19.514624,0.35519472967853655,0.16989139067118653,172.03756171985222,0.0049841017462313175,-0.0016949294367805123,-1.0002663135528564,0.00271586119197309,-0.00380065874196589,-0.035644132643938065
2024-05-13 17:26:19.532713,0.35559048044400066,0.16875420419501908,171.9950916035931,0.004959802143275738,-0.002118941629305482,-1.0013012886047363,0.002146658021956682,-0.0013465761439874768,-0.037245724350214005
2024-05-13 17:26:19.552732,0.3586834889209586,0.17009078683822593,171.94909710972223,0.005831290036439896,-0.007353062741458416,-1.0015151500701904,0.002589522860944271,-9.785487782210112e-05,-0.03572172299027443
2024-05-13 17:26:19.574602,0.3614320264120805,0.1690875894636671,171.90282940828456,0.0067728920839726925,-0.00841014925390482,-1.0018562078475952,0.001625082571990788,-0.002149988664314151,-0.03498011454939842
2024-05-13 17:26:19.591948,0.3615290898034887,0.1701692272919753,171.86422517909565,0.009998554363846779,-0.0051051778718829155,-0.9999696612358093,0.0014571778010576963,-0.0014847706770524383,-0.03333404287695885
2024-05-13 17:26:19.615462,0.35987303573402507,0.1708196827485,171.8321915918883,0.007983578369021416,-0.0020965596195310354,-1.0011680126190186,0.0006549312965944409,-0.0014839062932878733,-0.03183028846979141
2024-05-13 17:26:19.652414,0.3576373227196095,0.1691696317749866,171.7649005681853,0.005854791030287743,-0.0024049675557762384,-1.0010960102081299,0.001094713807106018,-0.001618977403268218,-0.03029259853065014
2024-05-13 17:26:19.666776,0.35658670088704403,0.1701779384512097,171.72770335796542,0.006143682170659304,-0.003921177238225937,-1.0008177757263184,-0.001067006611265242,-0.0005962136201560497,-0.030416574329137802
2024-05-13 17:26:19.694647,0.3541267655687816,0.1719465438996331,171.69057444963724,0.00895233079791069,-0.002847175346687436,-1.0011106729507446,-0.0007184583228081465,-0.0006275739870034158,-0.030853131785988808
2024-05-13 17:26:19.711775,0.3536750392686352,0.17183157794208004,171.6483092390532,0.006990977097302675,-0.002399396151304245,-1.000400185585022,0.0011617327108979225,-0.0010733279632404447,-0.031101223081350327
2024-05-13 17:26:19.728413,0.35235371782935504,0.17140479784066004,171.6048965566886,0.007030756212770939,-0.0032005691900849342,-1.0015262365341187,0.00013923054211772978,-0.0015045080799609423,-0.030470194295048714
2024-05-13 17:26:19.754789,0.35369438257780805,0.1702734543778841,171.56088281767703,0.006529198028147221,-0.005570885259658098,-1.0003790855407715,0.0003168542170897126,-0.0016305225435644388,-0.029538722708821297
2024-05-13 17:26:19.772207,0.35273300677170233,0.17021130232447965,171.5169100598005,0.007145968731492758,-0.00388536648824811,-1.0011987686157227,0.00026140137924812734,-0.001999601721763611,-0.028476877138018608
2024-05-13 17:26:19.795918,0.35310701298961344,0.1689199696845241,171.47041013193106,0.007975202053785324,-0.004416485317051411,-1.0008704662322998,0.0004451316490303725,-0.0030544078908860683,-0.02770921215415001
2024-05-13 17:26:19.814720,0.35173702645249694,0.16951062096517153,171.43389594062816,0.010572199709713459,-0.001159964594990015,-0.9998977184295654,0.0014139440609142184,-0.002836615312844515,-0.028600100427865982
2024-05-13 17:26:19.824508,0.3520530827841687,0.16988548095672887,171.39566054165442,0.007485833019018173,-0.003631188068538904,-1.0005979537963867,0.0017620900180190802,-0.0012985244393348694,-0.028117872774600983
2024-05-13 17:26:19.856683,0.3525073704052539,0.17019593439884712,171.3567421237637,0.008074852637946606,-0.003858102485537529,-1.0011132955551147,0.0008671725518070161,-0.0018330507446080446,-0.027894681319594383
2024-05-13 17:26:19.874147,0.35184188052842724,0.17015615388301708,171.32099291364784,0.006183226592838764,-0.004296781495213509,-1.0011225938796997,0.00041320486343465745,-0.0019824597984552383,-0.026072151958942413
2024-05-13 17:26:19.884858,0.35118332756247633,0.17221433533986522,171.28869977925203,0.00852435827255249,-0.003549190005287528,-1.001397728919983,0.0006834098021499813,-0.00060522451531142,-0.02580418810248375
2024-05-13 17:26:19.916395,0.35061404730341167,0.17337529407599547,171.25885185257908,0.008777724578976631,-0.002274841768667102,-1.0004141330718994,0.00029635042301379144,-0.0013268679613247514,-0.025813961401581764
2024-05-13 17:26:19.934487,0.3500784911033739,0.17326583762650338,171.22642211439987,0.008519556373357773,-0.003595475573092699,-1.0013622045516968,0.0010060833301395178,-0.0014351843856275082,-0.02370472624897957
2024-05-13 17:26:19.945613,0.3488166936954934,0.17153562531173486,171.19313177238521,0.005972785409539938,-0.004847171250730753,-1.0015095472335815,-0.0003398375411052257,-0.0015683082165196538,-0.024843644350767136
2024-05-13 17:26:19.976862,0.34922938653175023,0.17018942437479445,171.16463622316792,0.006674397271126509,-0.004611913580447435,-1.0006119012832642,0.0016441517509520054,-0.0020219204016029835,-0.02304677478969097
2024-05-13 17:26:19.990916,0.34923074723349895,0.16927738067718617,171.13866784394352,0.006700643803924322,-0.0020369968842715025,-1.0008163452148438,0.002380265621468425,-0.002147548831999302,-0.02342873625457287
2024-05-13 17:26:20.012778,0.34854065800348966,0.16941909376225073,171.115144672442,0.009190487675368786,-0.001017418340779841,-1.0002310276031494,0.0014172510709613562,-0.0027317670173943043,-0.023097824305295944
2024-05-13 17:26:20.036810,0.34981651599610686,0.1705549462170959,171.0866764439814,0.00814607460051775,-0.003313617082312703,-0.9997231960296631,0.0015956314746290445,-0.001482579973526299,-0.021665295585989952
2024-05-13 17:26:20.052841,0.3505961714176933,0.17056954041036151,171.0557630077979,0.0060364119708538055,-0.004728980828076601,-1.0005097389221191,0.0011569843627512455,-0.00221199169754982,-0.020756397396326065
2024-05-13 17:26:20.077933,0.3519589809200959,0.17165944917086778,171.02849689263124,0.005782075226306915,-0.0041978610679507256,-1.000043511390686,0.0013648509047925472,-0.00020728461095131934,-0.020574916154146194
2024-05-13 17:26:20.096792,0.35327435262427875,0.17344785149571365,171.00724134393414,0.006806997116655111,-0.0030083926394581795,-1.000100016593933,0.0033812494948506355,2.980352655868046e-05,-0.02103210613131523
2024-05-13 17:26:20.106362,0.35363944757975707,0.17539602955432756,170.98814413501478,0.007702614180743694,-0.002846442861482501,-1.001125693321228,0.0019694482907652855,0.000585270463488996,-0.018691517412662506
2024-05-13 17:26:20.132636,0.3544001865789937,0.1763705721508841,170.96623288815738,0.008821514435112476,-0.004367755260318518,-1.0007718801498413,0.0018883059965446591,-0.0009653267334215343,-0.01653643511235714
2024-05-13 17:26:20.156418,0.3558349531915195,0.17748937581323068,170.9425867732508,0.007861812599003315,-0.004432725254446268,-1.0009677410125732,0.0013986937701702118,-0.0014924813294783235,-0.01582820899784565
2024-05-13 17:26:20.164757,0.3536944626190874,0.17860775258875417,170.92331197941303,0.006678212434053421,-0.003084717318415642,-1.0011227130889893,6.32660448900424e-05,-0.0010488128755241632,-0.01584579050540924
2024-05-13 17:26:20.177934,0.35420688688939705,0.17919360139264143,170.90402352519692,0.007071275729686022,-0.0020400520879775286,-0.9996411800384521,0.0019204271957278252,-0.0007729466306045651,-0.01425597071647644
2024-05-13 17:26:20.215949,0.35517031708833907,0.18042524991863867,170.8837515237403,0.009330159984529018,-0.0038807447999715805,-1.000920057296753,0.002193480497226119,-0.0013152798637747765,-0.012841517105698586
2024-05-13 17:26:20.226798,0.35670534874344656,0.18124679360974427,170.85798805019104,0.010494246147572994,-0.005221745930612087,-1.0002878904342651,0.001810148824006319,-0.0023516598157584667,-0.013424674049019814
2024-05-13 17:26:20.252699,0.35876011510570965,0.18108273566753175,170.83772970911278,0.008334385231137276,-0.0036945240572094917,-1.0009366273880005,0.002558833919465542,-0.002306511392816901,-0.013100811280310154
2024-05-13 17:26:20.272166,0.3596082058211284,0.18078947776025756,170.81374208474767,0.0068129668943583965,-0.004221267066895962,-1.0010991096496582,0.0008521578856743872,-0.0014734212309122086,-0.013688145205378532
2024-05-13 17:26:20.300719,0.3596311509878714,0.17954719708432182,170.78969981886925,0.005684033501893282,-0.0031682951375842094,-1.0005398988723755,0.0004988705622963607,-0.001971936086192727,-0.013388373889029026
2024-05-13 17:26:20.312712,0.36155011397952763,0.17852863178413045,170.76628593039445,0.005159857217222452,-0.005012627225369215,-1.0005165338516235,0.0010098939528688788,-0.0015671394066885114,-0.012011991813778877
2024-05-13 17:26:20.333991,0.36152604823487394,0.17806299164159275,170.74718872147508,0.007804397959262133,-0.003942317795008421,-1.0019067525863647,0.00028801377629861236,-0.001551428809762001,-0.01177368126809597
2024-05-13 17:26:20.354704,0.3614479813070948,0.17863380602517806,170.73068698444033,0.008966556750237942,-0.003255383111536503,-1.0007994174957275,0.0011886967113241553,-0.0022037902381271124,-0.011852581053972244
2024-05-13 17:26:20.372174,0.362412078516698,0.17821014753365214,170.7100598131469,0.008634457364678383,-0.0027175904251635075,-1.0008825063705444,0.001530747045762837,-0.0025822638999670744,-0.011121265590190887
2024-05-13 17:26:20.396418,0.36394740365649636,0.17692707248568146,170.6908123400658,0.00617556506767869,-0.003999066539108753,-1.001011610031128,0.0018589177634567022,-0.002876433776691556,-0.009762050583958626
2024-05-13 17:26:20.414785,0.3646716971932086,0.17687288453957092,170.67435158416606,0.008360517211258411,-0.004446749575436115,-1.0008199214935303,0.001829057466238737,-0.0017607223708182573,-0.008038753643631935
2024-05-13 17:26:20.432685,0.3658386190046494,0.17545124469685625,170.65831429999488,0.007089048624038696,-0.0046103838831186295,-1.0004593133926392,0.0014421078376471996,-0.002227016258984804,-0.0077674007043242455
2024-05-13 17:26:20.447717,0.36591457817873935,0.1755496287693735,170.64843784645504,0.009474980644881725,-0.002136043505743146,-1.0008094310760498,0.001977166160941124,-0.0017828242853283882,-0.006388598587363958
2024-05-13 17:26:20.474599,0.36664391431604976,0.17490697733758406,170.63689482675773,0.007850144058465958,-0.002708917483687401,-1.0004652738571167,0.0010309781646355987,-0.0027447505854070187,-0.007040124386548996
2024-05-13 17:26:20.491884,0.36632727101499624,0.17194707750816202,170.62189573134037,0.006713037379086018,-0.004793168045580387,-1.0012520551681519,0.00019315647659823298,-0.003570040687918663,-0.005353098269551992
2024-05-13 17:26:20.507614,0.36732186395202643,0.17155897068487455,170.61053029656148,0.006988572888076305,-0.003843613900244236,-1.0009602308273315,0.0022576653864234686,-0.0013144349213689566,-0.00422373041510582
2024-05-13 17:26:20.534776,0.3686940649645379,0.17156504048189086,170.59935610707933,0.005693909712135792,-0.004309322685003281,-1.000556230545044,0.001886438112705946,-0.0022821982856839895,-0.00282667251303792
2024-05-13 17:26:20.552620,0.36933076666123,0.17155025952564015,170.5872666722484,0.007822185754776001,-0.002902549458667636,-1.001019835472107,0.001367067568935454,-0.0019194537308067083,-0.002692555543035269
2024-05-13 17:26:20.576710,0.37157242941074287,0.17127535775176037,170.5801359547549,0.008123155683279037,-0.004279374610632658,-1.0010136365890503,0.002719716401770711,-0.0016887475503608584,-0.0022736594546586275
2024-05-13 17:26:20.594731,0.37275869453135657,0.17101262225233965,170.57509527514745,0.008897330611944199,-0.003799168625846505,-1.001136064529419,0.002983854152262211,-0.002259253989905119,-0.0017299298197031021
2024-05-13 17:26:20.604395,0.3730448421049831,0.17116295311514604,170.57517723741748,0.007750137709081173,-0.0036422978155314922,-1.0008939504623413,0.0017114607617259026,-0.00112287444062531,-0.0006179120391607285
2024-05-13 17:26:20.636304,0.37454996500204535,0.17050801534697851,170.57075127483532,0.006889199372380972,-0.004429449327290058,-1.0010814666748047,0.0012009940110147,-0.0014391666045412421,-0.00042070882045663893
2024-05-13 17:26:20.654437,0.37526972286626187,0.16947761727765862,170.5661750480914,0.007927278988063335,-0.0043425667099654675,-1.0007728338241577,0.0020603046286851168,-0.0027719023637473583,-0.00043922345503233373
2024-05-13 17:26:20.663990,0.37531430585885206,0.1683572127897253,170.56546470841772,0.0074008675292134285,-0.0037562500219792128,-1.0003832578659058,0.0005769687122665346,-0.0025722661521285772,0.00037897384027019143
2024-05-13 17:26:20.696801,0.37539693513955336,0.16750077110082917,170.56814214257236,0.008175307884812355,-0.0031667682342231274,-1.0010602474212646,0.0011693125125020742,-0.0023396825417876244,0.001675223931670189
2024-05-13 17:26:20.710009,0.3756185961224614,0.16697480651409852,170.56862025581427,0.007901446893811226,-0.0033145372290164232,-1.0007487535476685,0.0010688460897654295,-0.0013140547089278698,0.0007874086732044816
2024-05-13 17:26:20.732681,0.3769613419441772,0.16626586756280556,170.56591550090295,0.006603260524570942,-0.004476708825677633,-1.000502586364746,0.0014405425172299147,-0.0012957447906956077,0.000603659194894135
2024-05-13 17:26:20.756862,0.3764764785543856,0.16645960747943858,170.5650822178242,0.00768689252436161,-0.004629300907254219,-1.001265287399292,0.0007670691702514887,-0.0008529546321369708,0.0006938283913768828
2024-05-13 17:26:20.771623,0.37600890408093063,0.16653670057165243,170.56588818014626,0.007584114093333483,-0.003817094024270773,-1.0005786418914795,0.0005675760330632329,-0.0005641668103635311,0.0014822822995483875
2024-05-13 17:26:20.792651,0.37622877747526684,0.16695054066624646,170.55707723611695,0.007871204987168312,-0.003416317980736494,-1.000744104385376,0.0014806949766352773,-0.0019329988863319159,0.001272360677830875
2024-05-13 17:26:20.816800,0.37641169847897626,0.16630025863249365,170.54893565062628,0.007690916769206524,-0.0039008711464703083,-1.000540852546692,0.0007486102404072881,-0.0018294136971235275,0.001570405438542366
2024-05-13 17:26:20.834061,0.3768336761036361,0.1657731201069994,170.54550689566295,0.006944688037037849,-0.004276225343346596,-1.0006023645401,0.001193651813082397,-0.0016713561490178108,0.0017537681851536036
2024-05-13 17:26:20.852639,0.37738676134384846,0.16579937364662165,170.54076674437894,0.007500263396650553,-0.004112505819648504,-1.0012760162353516,0.0013526957482099533,-0.001511856447905302,0.0006498977309092879
2024-05-13 17:26:20.876809,0.37646868786986354,0.16523628324649225,170.53942802730162,0.00758437579497695,-0.003251538844779134,-1.0002931356430054,0.0010793179972097278,-0.0024694837629795074,0.0011110847117379308
2024-05-13 17:26:20.884219,0.37705949923306964,0.16645355102263548,170.5366549704986,0.007924959063529968,-0.003888167440891266,-1.0016368627548218,0.0009049858199432492,-0.0012051822850480676,0.00013074309390503913
2024-05-13 17:26:20.912624,0.3765236228679146,0.16641761248821357,170.5340321778573,0.007392528932541609,-0.0041112438775599,-1.0007295608520508,0.0005609571817331016,-0.001122075249440968,0.0008047986775636673
2024-05-13 17:26:20.936711,0.3760867575652982,0.16648730176208884,170.53102689462253,0.006888940464705229,-0.004438671749085188,-1.001177191734314,0.0006973313284106553,-0.0008600701112300158,0.001513828057795763
2024-05-13 17:26:20.946456,0.375515769758941,0.16613229200780685,170.53008432851706,0.007627197541296482,-0.0033024840522557497,-1.0011147260665894,0.0016766027547419071,-0.0016909746918827295,0.0004257769032847136
2024-05-13 17:26:20.978840,0.37422283629339875,0.16627930115752082,170.53138206445936,0.007084795739501715,-0.0034678515512496233,-1.0007634162902832,1.527724089100957e-05,-0.0011804867535829544,0.0010582838440313935
2024-05-13 17:26:20.991013,0.3731468413752837,0.16701576096869214,170.53226998905146,0.007911324501037598,-0.0033372482284903526,-1.0008622407913208,-0.00012768630404025316,-0.0008283260394819081,0.001376256812363863
2024-05-13 17:26:21.014807,0.3728248353085146,0.16691748361788064,170.53390923445227,0.007290020119398832,-0.00368958106264472,-1.000083327293396,0.000853023084346205,-0.00061917828861624,0.001913058920763433
2024-05-13 17:26:21.032826,0.3721651617646531,0.16788199437409373,170.53229730980814,0.007379966787993908,-0.0027935937978327274,-1.000931978225708,0.00028762250440195203,-0.0003197330515831709,0.002737087430432439
2024-05-13 17:26:21.052936,0.3707829022313717,0.16816762167940455,170.53588998931156,0.007444179616868496,-0.0023569269105792046,-1.0001732110977173,-8.623213216196746e-05,-0.0008406419074162841,0.002957705408334732
2024-05-13 17:26:21.074813,0.36991442767014876,0.1684023827516973,170.5391411593565,0.0077779716812074184,-0.0030727782286703587,-1.0007210969924927,2.6717025320976973e-06,-0.0006945339846424758,0.00364859402179718
2024-05-13 17:26:21.091932,0.3697451136839265,0.16851958986507176,170.53737897055063,0.007717552594840527,-0.0035929663572460413,-1.0005249977111816,0.0006532717379741371,-0.0010254487860947847,0.003115506377071142
2024-05-13 17:26:21.115425,0.3694217735958351,0.1687667439954484,170.54143610291763,0.007165281102061272,-0.003047203179448843,-1.0006126165390015,0.00037581808282993734,-0.0004526963457465172,0.0040781209245324135
2024-05-13 17:26:21.119383,0.3689585747123172,0.16920714445456875,170.54904493365302,0.007452089339494705,-0.0024205492809414864,-1.0005522966384888,0.00021316132915671915,-0.0005166537594050169,0.004834684077650309
2024-05-13 17:26:21.152163,0.36852990030061955,0.1694874890354434,170.55804712297908,0.007412690669298172,-0.0016139550134539604,-1.0003774166107178,0.0005455175996758044,-0.0008054972277022898,0.0058497772552073
2024-05-13 17:26:21.166722,0.36829922133357296,0.1705817066848206,170.5642625951238,0.008214718662202358,-0.002832238096743822,-1.0005422830581665,0.0006318093510344625,-0.0007803905755281448,0.006245190277695656
2024-05-13 17:26:21.200633,0.36729483668003726,0.1702363952655515,170.56814214257236,0.008514133282005787,-0.003806013846769929,-1.0006225109100342,-0.000262892572209239,-0.0011179342400282621,0.005319036077708006
2024-05-13 17:26:21.211935,0.36634634751990464,0.1716534460749176,170.57609248276626,0.007771899923682213,-0.0018180976621806622,-1.0022507905960083,0.0008176101255230606,-0.0004974731127731502,0.006333009339869022
2024-05-13 17:26:21.227963,0.36460350202321423,0.17161349213631566,170.58521761549738,0.008765652775764465,-0.0025017710868269205,-0.9992979764938354,0.000661394267808646,-0.0010278583504259586,0.007038907613605261
2024-05-13 17:26:21.240496,0.3637986069182106,0.17381133228539203,170.58670659673646,0.009150841273367405,-0.0042125023901462555,-1.0021228790283203,-0.0006267161224968731,-0.000628239125944674,0.007999028079211712
2024-05-13 17:26:21.272422,0.36250324553386176,0.17412225263497308,170.59028561586155,0.008359312079846859,-0.005506794899702072,-1.0001200437545776,-0.0012121559120714664,-0.00092534557916224,0.01033704075962305
2024-05-13 17:26:21.288008,0.36082555363855096,0.17683962738800676,170.58684320051987,0.008831661194562912,-0.006976277567446232,-1.0007323026657104,-0.0020805648528039455,0.0008387718116864562,0.010674037039279938
2024-05-13 17:26:21.314807,0.3560808933624928,0.1794569105212307,170.5945339935253,0.008919007144868374,-0.0025302020367234945,-1.0009504556655884,-0.0021306537091732025,0.00105176935903728,0.011481785215437412
2024-05-13 17:26:21.331806,0.3507430204848485,0.18115398574635408,170.60879542851228,0.007507926318794489,-0.002127652522176504,-1.0003259181976318,-0.0031853446271270514,0.0006691677263006568,0.012956774793565273
2024-05-13 17:26:21.356124,0.34736938728253824,0.18327362556551913,170.6221142973938,0.005786365829408169,-0.0030707046389579773,-1.000590443611145,-0.0025352865923196077,0.0010985051048919559,0.012721603736281395
2024-05-13 17:26:21.374165,0.34672897700657024,0.18540308378161605,170.62804290159337,0.00632455525919795,-0.006403436418622732,-1.0001167058944702,-0.0009696560446172953,0.0016811983659863472,0.014150737784802914
2024-05-13 17:26:21.387558,0.3448870404060617,0.18766344951006714,170.63612984557068,0.0063891056925058365,-0.006451248656958342,-1.0017144680023193,-0.0021026325412094593,0.0007497851038351655,0.016530439257621765
2024-05-13 17:26:21.416443,0.34289078421899327,0.18960858600006628,170.6464844123524,0.0060569592751562595,-0.006108502857387066,-1.0008552074432373,-0.0017082452541217208,0.0008963761501945555,0.01832171529531479
2024-05-13 17:26:21.434688,0.34029920767664945,0.1911916424227754,170.66402433814102,0.008031489327549934,-0.003286221995949745,-1.0013337135314941,-0.0013537000631913543,-0.00031873153056949377,0.020730359479784966
2024-05-13 17:26:21.446685,0.33874838120908635,0.19246628645598937,170.68646833975367,0.007326413411647081,-0.004201535135507584,-1.0005128383636475,-0.00043852851376868784,0.0003203554078936577,0.022693589329719543
2024-05-13 17:26:21.476786,0.3373814095601582,0.19461354051652535,170.70713649218212,0.0075362008064985275,-0.004354965873062611,-1.0018061399459839,-4.063226515427232e-05,0.000508554803673178,0.023821424692869186
2024-05-13 17:26:21.491024,0.3379753425332584,0.19701207083332375,170.7342250224304,0.008080219849944115,-0.0035020781215280294,-1.0010852813720703,0.0001584927667863667,0.0008140109712257981,0.02585991472005844
2024-05-13 17:26:21.512499,0.3378222502463149,0.19917978878094333,170.76076713754506,0.009923714213073254,-0.00459164148196578,-1.000643014907837,0.00014633554383181036,-0.0004724771133624017,0.02890036068856716
2024-05-13 17:26:21.536816,0.3380643484358801,0.20208996963568443,170.7833067618061,0.009565122425556183,-0.004407786764204502,-1.0022975206375122,0.0011431362945586443,0.00020911148749291897,0.030248530209064484
2024-05-13 17:26:21.552999,0.338312236277984,0.20311577867165573,170.80922049951712,0.009922388009727001,-0.005913933273404837,-1.001036286354065,-0.0006388601614162326,-0.000724201905541122,0.030969200655817986
2024-05-13 17:26:21.572621,0.33711828719455406,0.2036658090030401,170.84119944521115,0.007074430584907532,-0.004159367643296719,-1.0019491910934448,-0.000586415349971503,-0.00027755124028772116,0.03004612773656845
2024-05-13 17:26:21.596810,0.335849926401768,0.20476248125165028,170.87846495732273,0.007700303569436073,-0.0017535281367599964,-1.0014467239379883,-0.0004656632081605494,-6.100497557781637e-05,0.031387556344270706
2024-05-13 17:26:21.604766,0.3364804115590983,0.2062678442725505,170.9153206580841,0.008267038501799107,-0.0023495089262723923,-1.0007966756820679,0.00045575250987894833,-0.00020517905068118125,0.03095252811908722
2024-05-13 17:26:21.632573,0.33682578967943355,0.20675385492067921,170.95436201937991,0.008905082009732723,-0.003270274493843317,-1.000946283340454,0.0016215010546147823,-0.001248866319656372,0.03283584862947464
2024-05-13 17:26:21.656785,0.3363748637920805,0.20730860768754442,170.99410005997103,0.009450167417526245,-0.003382366616278887,-1.000905990600586,0.000720652868039906,-0.001219544792547822,0.033416494727134705
2024-05-13 17:26:21.666566,0.33802147299058244,0.206919006760376,171.0350402138561,0.009186330251395702,-0.004059666767716408,-1.0003900527954102,0.0017590238712728024,-0.0010024684015661478,0.03492620959877968
2024-05-13 17:26:21.677888,0.3383590070655427,0.20519960001831786,171.07346685812658,0.007844274863600731,-0.004230204503983259,-1.001664161682129,0.0006449533393606544,-0.0024233488366007805,0.0359039381146431
2024-05-13 17:26:21.715964,0.3377151816949897,0.20375457478182382,171.1142840686066,0.008912230841815472,-0.003666137345135212,-1.0004724264144897,0.00046609065611846745,-0.0027826372534036636,0.036193836480379105
2024-05-13 17:26:21.725380,0.3372435251162886,0.2027105163341639,171.15730059999933,0.008482681587338448,-0.003613693406805396,-1.0003641843795776,0.0009454629034735262,-0.0021911568474024534,0.03519565984606743
2024-05-13 17:26:21.752633,0.33872666334195983,0.20204097103251753,171.2006996219856,0.006653676740825176,-0.003680604277178645,-1.0006009340286255,0.0012620729394257069,-0.0017078644596040249,0.036107297986745834
2024-05-13 17:26:21.772176,0.33972344407395855,0.20078624393764502,171.24027373803665,0.006618078798055649,-0.003677923232316971,-0.9990667700767517,0.0013859841274097562,-0.001163990469649434,0.035944271832704544
2024-05-13 17:26:21.794631,0.3406236416622251,0.20171573663414857,171.28242966559395,0.009310430847108364,-0.0033233645372092724,-1.0001658201217651,0.0016967689152806997,-0.0014548548497259617,0.038026437163352966
2024-05-13 17:26:21.812669,0.3423695554079567,0.20262161715324795,171.32320589493892,0.009305134415626526,-0.004666369874030352,-1.0011911392211914,0.0013024694053456187,-0.0005827076965942979,0.03878200426697731
2024-05-13 17:26:21.834028,0.3441814765287141,0.2057450813369933,171.3624111807748,0.011823791079223156,-0.006027775350958109,-1.0015727281570435,0.0008664101478643715,-0.0003334989887662232,0.038960106670856476
2024-05-13 17:26:21.854687,0.34604883957562504,0.2064625980453884,171.40417095736026,0.010100002400577068,-0.006299247033894062,-1.0013632774353027,0.0012217967305332422,-0.001230038469657302,0.038886286318302155
2024-05-13 17:26:21.878853,0.34635513087121783,0.20483066308143139,171.4543865081382,0.006632177624851465,-0.004083049017935991,-1.0012478828430176,0.0010005524381995201,-0.002199022099375725,0.04228078946471214
2024-05-13 17:26:21.896459,0.34570178058842377,0.2019606095880641,171.5051348136714,0.004039545077830553,-0.0034770858474075794,-1.0013854503631592,0.0007304924074560404,-0.002231042832136154,0.042763397097587585
2024-05-13 17:26:21.914703,0.34628333384365334,0.20328489255467966,171.55241338310623,0.008668038062751293,-0.0025391788221895695,-1.001423954963684,0.001642189105041325,-0.0006578877218998969,0.042417895048856735
2024-05-13 17:26:21.932702,0.3457930810077198,0.20247052589828787,171.60038863183638,0.008523765951395035,-0.0023896859493106604,-1.0006805658340454,0.0007594579365104437,-0.0014122286811470985,0.041948188096284866
2024-05-13 17:26:21.948834,0.34384028723533083,0.2039846534392754,171.64546788035847,0.011880987323820591,-0.0025171609595417976,-1.0014251470565796,-7.276363612618297e-05,-0.0015527158975601196,0.0401977114379406
2024-05-13 17:26:21.974678,0.34300588357867856,0.20242438210075062,171.6893313552083,0.007318570278584957,-0.004230466205626726,-1.000240445137024,-0.00047080483636818826,-0.001930839498527348,0.04096291586756706
2024-05-13 17:26:21.992029,0.3412741371393895,0.20309708903293075,171.73204735827755,0.006622374523431063,-0.0031722337007522583,-1.0007703304290771,-0.0005470963078550994,-0.0005201924359425902,0.04054991155862808
2024-05-13 17:26:22.007805,0.3420668392895076,0.20157433037398814,171.77735883323143,0.005524190608412027,-0.00296706217341125,-1.0004874467849731,0.001188261085189879,-0.0014489396708086133,0.04072962701320648
