sTimestamp,sRoll,sPitch,sYaw,sAcc_x,sAcc_y,sAcc_z,sGyro_x,sGyro_y,sGyro_z
2024-05-13 17:12:03.068198,0.38148930379664603,0.05711853749150267,170.74445664580708,0.005675540771335363,-0.004295680671930313,-1.0004225969314575,0.00039280898636206985,-0.0013519860804080963,0.0002754165034275502
2024-05-13 17:12:03.092175,0.3808076455813935,0.057151774632746975,170.74396487218684,0.005845018196851015,-0.004061879124492407,-1.0013527870178223,-0.00024712589220143855,-0.0020780640188604593,0.0012081516906619072
2024-05-13 17:12:03.102305,0.3808862994785544,0.05694329378050292,170.74335015516152,0.005648991093039513,-0.004382128361612558,-1.0008530616760254,0.0003346027806401253,-0.0007925969548523426,0.0013624215498566628
2024-05-13 17:12:03.128761,0.3801898336266247,0.05650901647925175,170.74218902300262,0.005738524254411459,-0.00393727095797658,-1.0006827116012573,0.001466865069232881,-0.0007313531823456287,0.0007262563449330628
2024-05-13 17:12:03.148864,0.3803850009460725,0.05719898564734205,170.7410142304654,0.005518300924450159,-0.004205680917948484,-1.0010900497436523,0.0007919332711026073,-0.0007251790957525373,0.0011770188575610518
2024-05-13 17:12:03.156139,0.3802212098081244,0.05671747065106937,170.74106887197874,0.005722381174564362,-0.004191950429230928,-1.0003718137741089,0.001038804417476058,-0.000947289343457669,0.0006950991228222847
2024-05-13 17:12:03.188806,0.38010458966413174,0.05671000013166467,170.74116449462713,0.005690229125320911,-0.0042483084835112095,-1.0013384819030762,0.0014443853870034218,-0.0015753847546875477,-0.00014318291505333036
2024-05-13 17:12:03.208904,0.3801228657562468,0.05683020212290764,170.74027657003504,0.005705615039914846,-0.004187900107353926,-1.0005232095718384,0.0012972301337867975,-0.0015751486644148827,0.00042302749352529645
2024-05-13 17:12:03.230521,0.3805233656376182,0.05711447539657636,170.74035853230507,0.005643073935061693,-0.003997243009507656,-1.0010852813720703,0.0006296415813267231,-0.001581888529472053,0.0018807824235409498
2024-05-13 17:12:03.248579,0.3804949509834538,0.05696685259705417,170.7367248716666,0.005508240312337875,-0.004290066193789244,-1.0008301734924316,0.0004944941028952599,-0.0012537621660158038,0.001506717992015183
2024-05-13 17:12:03.271752,0.38035872072602384,0.05718329088648556,170.7364106829648,0.005519747734069824,-0.004157672170549631,-1.0005377531051636,0.0006350452313199639,-0.0018263221718370914,0.0015771423932164907
2024-05-13 17:12:03.290762,0.381559393276918,0.05804071975116017,170.73142464487069,0.005284912418574095,-0.004230345133692026,-1.0008103847503662,0.0015183070208877325,-0.0013062786310911179,0.0010040872730314732
2024-05-13 17:12:03.308730,0.3815001627302093,0.05817462214138283,170.72932094660632,0.005299339070916176,-0.004281572997570038,-1.000128984451294,0.0009248845744878054,-0.001725945738144219,0.0012108547380194068
2024-05-13 17:12:03.323156,0.38173068161469725,0.057865569421652975,170.73070064481868,0.005455784033983946,-0.004307796247303486,-1.0012000799179077,0.0009171476121991873,-0.0016697957180440426,0.0026583359576761723
2024-05-13 17:12:03.335607,0.38192206031358983,0.05821328874940877,170.72988102211826,0.00534957367926836,-0.004439712036401033,-1.0000969171524048,-9.238760685548186e-05,-0.001467253314331174,0.0012217694893479347
2024-05-13 17:12:03.368129,0.38330325262981335,0.05950252697588835,170.72738117288205,0.00573247903957963,-0.004190229345113039,-1.0008032321929932,0.0016497333999723196,-0.0008203483885154128,0.0008151603396981955
2024-05-13 17:12:03.383630,0.3831549094587771,0.0593290508431406,170.72646592753327,0.005358814261853695,-0.00423135980963707,-1.0003702640533447,0.00066593405790627,-0.0013108100974932313,0.0008037227089516819
2024-05-13 17:12:03.396669,0.38299141180551993,0.05920972930597033,170.72723090872032,0.005638298112899065,-0.004092149902135134,-1.0005327463150024,0.0006370142218656838,-0.0012505899649113417,0.0007955366745591164
2024-05-13 17:12:03.428802,0.382715242711384,0.05888053286427423,170.72596049353467,0.005478641949594021,-0.004094569478183985,-1.000632405281067,0.000514289946295321,-0.001357170520350337,0.0011066599981859326
2024-05-13 17:12:03.443647,0.38309455833415773,0.05881665992336403,170.72710796531524,0.005685058888047934,-0.004331622272729874,-1.0011577606201172,0.0011943519348278642,-0.0013103598030284047,0.0013167198048904538
2024-05-13 17:12:03.470734,0.3825257049619161,0.05878391637000896,170.72690305964014,0.005881152581423521,-0.0038465766701847315,-1.000874638557434,0.0009756826912052929,-0.0014539281837642193,0.0005525400629267097
2024-05-13 17:12:03.488793,0.38255974918606045,0.05853134611306394,170.72466275759237,0.005652208346873522,-0.004196741618216038,-1.001012921333313,0.0005443008267320693,-0.0011128939222544432,0.0011497806990519166
2024-05-13 17:12:03.518769,0.3825318414599986,0.05796393348385042,170.72544139915777,0.0056632766500115395,-0.004218433517962694,-1.0007591247558594,0.0005812076851725578,-0.0020099650137126446,0.0016604578122496605
2024-05-13 17:12:03.529927,0.38192624914054174,0.05817540921396297,170.7229278895432,0.00562745938077569,-0.004107112996280193,-1.001230001449585,-0.0005300050834193826,-0.0019533843733370304,0.0015653397422283888
2024-05-13 17:12:03.542346,0.381762297920035,0.058846081763626656,170.72045536106364,0.005650886334478855,-0.00421855878084898,-1.0010294914245605,0.00023403926752507687,-0.001801763311959803,0.0010803688783198595
2024-05-13 17:12:03.571958,0.3822886760533756,0.059258901331909135,170.72041437992863,0.005583968013525009,-0.00398946413770318,-1.001097321510315,0.0007110453443601727,-0.001525921979919076,0.0022703378926962614
2024-05-13 17:12:03.590899,0.381381648275939,0.05897494155325114,170.71840630431265,0.005496778525412083,-0.004263279028236866,-1.0009702444076538,-0.00011844073014799505,-0.0016373309772461653,0.0012308753794059157
2024-05-13 17:12:03.601513,0.38047227262097527,0.060041671693283005,170.7162752852916,0.0057342760264873505,-0.003920225892215967,-1.0008156299591064,-0.0005186296766623855,-0.0011703247437253594,0.0011914466740563512
2024-05-13 17:12:03.632664,0.38070452573318214,0.05954944450579252,170.71652117210172,0.005414010491222143,-0.0041779447346925735,-1.0010846853256226,4.236644599586725e-07,-0.0013500676723197103,0.0019008091185241938
2024-05-13 17:12:03.647927,0.3808273624165366,0.0590221458977396,170.71645287021002,0.00561869889497757,-0.0041642258875072,-1.0005183219909668,0.0004757860442623496,-0.0014091143384575844,0.0014052942860871553
2024-05-13 17:12:03.668852,0.3800998939090774,0.059625970638944426,170.71628894566993,0.005354634020477533,-0.004138383083045483,-1.001217246055603,0.0004477099282667041,-0.0009334631031379104,0.001626737299375236
2024-05-13 17:12:03.692738,0.3793584448581607,0.06029328812498261,170.71624796453492,0.005262302700430155,-0.004252538084983826,-1.0003740787506104,0.0002554322127252817,-4.322666791267693e-05,0.001627919264137745
2024-05-13 17:12:03.709036,0.37881787273795126,0.06066560680592103,170.7159747569681,0.005541165824979544,-0.004190129227936268,-1.000949740409851,0.0002280002081533894,-0.00108535576146096,0.0020148383919149637
2024-05-13 17:12:03.734351,0.37888950968295704,0.061515091573621526,170.71533271918614,0.005103850271552801,-0.004448993597179651,-1.000514268875122,0.0009017107076942921,-0.0009174795704893768,0.00143698719330132
2024-05-13 17:12:03.752146,0.3784914644008187,0.06104061353982382,170.71632992680497,0.005382050294429064,-0.003834209870547056,-1.0007388591766357,0.0005713675636798143,-0.0015123153571039438,0.0012072732206434011
2024-05-13 17:12:03.761770,0.3777001496328757,0.06185241887527686,170.71635724756163,0.005406584125012159,-0.0040071941912174225,-1.0008400678634644,9.978919115383178e-05,-0.0006916318670846522,0.0009282072423957288
2024-05-13 17:12:03.788734,0.3777212271697675,0.061575155883656654,170.71403498324383,0.005607043858617544,-0.0042026108130812645,-1.0006012916564941,0.0009028218919411302,-0.0013263599248602986,0.0019435433205217123
2024-05-13 17:12:03.812664,0.37805884128600714,0.06273477392835805,170.70984124709344,0.005529290996491909,-0.004222313407808542,-1.00127375125885,0.0013356890995055437,-0.00032982410630211234,0.0009287417633458972
2024-05-13 17:12:03.822489,0.3786047494915057,0.062229299909137434,170.70877573758293,0.005609899293631315,-0.004249130375683308,-1.000454306602478,0.0012385108275339007,-0.0014316258020699024,0.0007251630304381251
2024-05-13 17:12:03.834791,0.37899479064571046,0.06176560743773026,170.70734139785722,0.005758026614785194,-0.004065040498971939,-1.0012781620025635,0.0011300536571070552,-0.0017344631487503648,0.0007813440170139074
2024-05-13 17:12:03.872136,0.3791405458153815,0.061869034110845704,170.70590705813152,0.005520766135305166,-0.0041940161027014256,-1.0005881786346436,0.001483997330069542,-0.0017026757122948766,0.0009998106397688389
2024-05-13 17:12:03.882451,0.3799617159805168,0.06196721141005803,170.70581143548316,0.005869751330465078,-0.0041761682368814945,-1.0008736848831177,0.0009277831995859742,-0.0016640513204038143,0.0011802029330283403
2024-05-13 17:12:03.908648,0.38022104972556575,0.06249150180002923,170.70119422760422,0.005832758266478777,-0.00439692847430706,-1.0011301040649414,0.0016000865725800395,-0.0012306307908147573,0.0012358101084828377
2024-05-13 17:12:03.928776,0.38047443373551737,0.06284036171601556,170.69950034069007,0.005750676151365042,-0.004242336843162775,-1.0006895065307617,0.0005811855662614107,-0.0011534423101693392,0.000499472429510206
2024-05-13 17:12:03.956571,0.3805885192389977,0.06270593905747722,170.69676826502206,0.0056471009738743305,-0.004048850852996111,-1.0013333559036255,0.000783922616392374,-0.0013384378980845213,0.0011079476680606604
2024-05-13 17:12:03.968664,0.3805325703847418,0.06242324659907538,170.69469188751435,0.005306345410645008,-0.004382194019854069,-1.000505805015564,0.0002143562160199508,-0.0023760697804391384,0.0011695424327626824
2024-05-13 17:12:03.990212,0.3797271950320621,0.062311495632908984,170.69455528373095,0.00567252142354846,-0.004404760897159576,-1.0012794733047485,0.00012028636410832405,-0.0020108786411583424,0.0014952593483030796
2024-05-13 17:12:04.010815,0.3802395926219453,0.06295894287135198,170.69414547238077,0.0055582779459655285,-0.00445221271365881,-1.0008256435394287,0.0008096429519355297,-0.0012324466370046139,0.001062125083990395
2024-05-13 17:12:04.028527,0.3798090772608229,0.0630792916049404,170.6917002646579,0.0054652937687933445,-0.004022988956421614,-1.0007987022399902,0.0013264588778838515,-0.0010656139347702265,0.0013661267003044486
2024-05-13 17:12:04.052811,0.3799368231426433,0.06339360036867998,170.68519792456806,0.005588348954916,-0.004056674428284168,-1.0005645751953125,0.000513520382810384,-0.0011175087420269847,0.0013037894386798143
2024-05-13 17:12:04.070784,0.3797893871061062,0.06374034586087053,170.68446026413767,0.005374875385314226,-0.0043985722586512566,-1.000675082206726,0.0011363927042111754,-0.001059109577909112,0.001448253053240478
2024-05-13 17:12:04.088916,0.38005789891785235,0.0634905903889155,170.68271173571017,0.0056458390317857265,-0.004033625591546297,-1.0006085634231567,0.0008772647706791759,-0.0016689286567270756,0.0013064481317996979
2024-05-13 17:12:04.103323,0.3798101711583072,0.06320835816786984,170.6826570941968,0.005577669013291597,-0.0041744401678442955,-1.0006204843521118,1.891921419883147e-05,-0.001828768290579319,0.0007510327850468457
2024-05-13 17:12:04.130988,0.37958360097693317,0.06275723217731843,170.68204237717148,0.005733136553317308,-0.004249881021678448,-1.0006945133209229,0.0007094585453160107,-0.002434006193652749,0.0010963745880872011
2024-05-13 17:12:04.148978,0.37920100366170667,0.06256107101198552,170.68193309414477,0.0056992461904883385,-0.004322666209191084,-1.0003137588500977,0.0005884653073735535,-0.0019369962392374873,0.0006019204156473279
2024-05-13 17:12:04.164028,0.37988338224847323,0.06309241837475152,170.68260245268343,0.005766139831393957,-0.004502748139202595,-1.0009218454360962,0.000838504871353507,-0.0011943456484004855,0.001230138703249395
2024-05-13 17:12:04.190220,0.3796856269276602,0.0633136791512629,170.6838182263557,0.006153017748147249,-0.004115600138902664,-1.0005723237991333,0.0007089435821399093,-0.0011774381855502725,0.001397250685840845
2024-05-13 17:12:04.208209,0.3796629218847552,0.063011183146332,170.68459686792107,0.005630750674754381,-0.004194849170744419,-1.0011996030807495,0.0014114807127043605,-0.0013679706025868654,0.0012432979419827461
2024-05-13 17:12:04.232199,0.38016459394320734,0.06313606755241613,170.68380456597737,0.006019294261932373,-0.004376680590212345,-1.0005886554718018,0.0017206824850291014,-0.0008144784951582551,0.0017064636340364814
2024-05-13 17:12:04.250415,0.38083229829542903,0.0634832999623893,170.6829576225203,0.005588877014815807,-0.004322619177401066,-1.0010143518447876,0.001467774622142315,-0.0013328329659998417,0.0022456771694123745
2024-05-13 17:12:04.259698,0.38116732441030343,0.06339386050283782,170.68284833949355,0.005703540984541178,-0.0043242513202130795,-1.000774621963501,0.0012105104979127645,-0.00132403161842376,0.0014685633359476924
2024-05-13 17:12:04.292677,0.3812848250083688,0.06291173185675691,170.67906441469339,0.005347321275621653,-0.004137604497373104,-1.0007245540618896,0.0019166963174939156,-0.0017548850737512112,0.0014865061966702342
2024-05-13 17:12:04.310686,0.3813212971513196,0.06259760318589583,170.6716331688764,0.005435345694422722,-0.004281260073184967,-1.0009706020355225,0.0010306630283594131,-0.0018105446361005306,0.0016350983642041683
2024-05-13 17:12:04.321480,0.3817374050821615,0.06307695039751982,170.67267135763024,0.005540893878787756,-0.003858609590679407,-1.0003349781036377,0.001923436764627695,-0.002741387812420726,0.0013096410548314452
2024-05-13 17:12:04.352671,0.38251935502042217,0.06306752553687799,170.67160584811973,0.005211359821259975,-0.004375453572720289,-1.0008351802825928,0.001850710017606616,-0.001585495425388217,0.0013579623773694038
2024-05-13 17:12:04.366286,0.3817927136061827,0.0637369707869252,170.67010320650232,0.005262319464236498,-0.003979506436735392,-1.0002198219299316,0.00046893308172002435,-0.0007999727968126535,0.0010851324768736959
2024-05-13 17:12:04.373357,0.3812847983279424,0.06442105692098428,170.6713599613096,0.00535757839679718,-0.004006035625934601,-1.0007365942001343,0.0006939835147932172,-0.0009893238311633468,0.0003887065686285496
2024-05-13 17:12:04.418802,0.38180741452115413,0.06358822073938568,170.6725893953602,0.005542759317904711,-0.004197530448436737,-1.0009284019470215,0.0003126019728370011,-0.001396035891957581,0.0023166986647993326
2024-05-13 17:12:04.427941,0.38190207667418224,0.06380574625619471,170.67437890492275,0.005680972244590521,-0.0043246205896139145,-1.000329852104187,0.001342578325420618,-0.0018416871316730976,0.001287321443669498
2024-05-13 17:12:04.448791,0.381624093311048,0.06329975863876504,170.67506192383973,0.005539147183299065,-0.00447961175814271,-1.0009266138076782,0.0004179162788204849,-0.0016634410712867975,0.0018712931778281927
2024-05-13 17:12:04.472724,0.3815477072501349,0.0635224201376648,170.67465211248955,0.0057758609764277935,-0.004215975757688284,-1.000644326210022,0.0005735594313591719,-0.0012525557540357113,0.0012361158151179552
2024-05-13 17:12:04.490377,0.38117071282446197,0.06342876517073498,170.67582690502678,0.005601569078862667,-0.004185735248029232,-1.0010324716567993,0.000302797241602093,-0.0015814924845471978,0.0017084619030356407
2024-05-13 17:12:04.508959,0.3799119303047698,0.06329631686375359,170.67768471648102,0.0056126415729522705,-0.0039774575270712376,-1.0006656646728516,-0.0002740033669397235,-0.001984864007681608,0.001255561481229961
2024-05-13 17:12:04.532420,0.37952207591355014,0.06350753245970829,170.67626403713368,0.005637854337692261,-0.0040490529499948025,-1.0009739398956299,0.00041531992610543966,-0.0015589208342134953,0.0006725266575813293
2024-05-13 17:12:04.542465,0.3795047869972136,0.06348632152068423,170.66952947061205,0.005831674672663212,-0.004252234939485788,-1.0008294582366943,0.001028629019856453,-0.002016626065596938,0.000952807255089283
2024-05-13 17:12:04.568943,0.37949550220881056,0.063343607919628,170.66901037623512,0.005867559928447008,-0.004227872006595135,-1.0008080005645752,0.0016161013627424836,-0.0019228535238653421,0.0010774737456813455
2024-05-13 17:12:04.592935,0.3796283173716556,0.06312091974030178,170.66806781012966,0.005710623227059841,-0.00409023929387331,-1.0009158849716187,0.0008029547170735896,-0.001437244936823845,0.0013304860331118107
2024-05-13 17:12:04.602353,0.3791548732043826,0.06195363774310395,170.66735747045598,0.005725725553929806,-0.003987431526184082,-1.0009335279464722,0.0011488390155136585,-0.0019344972679391503,0.001838518539443612
2024-05-13 17:12:04.634729,0.37951748688020154,0.061141212087736055,170.66745309310434,0.005585715640336275,-0.004174390807747841,-1.0009459257125854,0.001398688298650086,-0.0026241415180265903,0.001609200844541192
2024-05-13 17:12:04.648278,0.37941020488546473,0.06118960371120133,170.66887377245172,0.005167615134268999,-0.004036074969917536,-1.0007917881011963,0.0008743196958675981,-0.001902750344015658,0.00156379712279886
2024-05-13 17:12:04.670904,0.3786898600518664,0.061037672022808215,170.66881913093835,0.0055330595932900906,-0.004312027711421251,-1.0009757280349731,0.0006006445037201047,-0.0015203927177935839,0.0010116209741681814
2024-05-13 17:12:04.689133,0.3776718683808436,0.06122424824494063,170.6659641118653,0.005260314326733351,-0.004307831637561321,-1.000200867652893,-0.0003751500335056335,-0.0013171159662306309,0.00010664461296983063
2024-05-13 17:12:04.709072,0.3774912152133821,0.06026888887499832,170.6671252440242,0.005428060423582792,-0.00388727942481637,-1.0010384321212769,0.00038503544055856764,-0.0016270492924377322,0.0016965166432783008
2024-05-13 17:12:04.730897,0.37670414263324387,0.06075150443886187,170.66907867812682,0.005400524009019136,-0.004206757992506027,-1.000179409980774,-0.00041565258288756013,-0.0013219515094533563,0.0021267251577228308
2024-05-13 17:12:04.748568,0.3773815853411181,0.06045219007478458,170.66917430077518,0.0054938169196248055,-0.00416673393920064,-1.0010285377502441,0.0006252161110751331,-0.0017259151209145784,0.000987580162473023
2024-05-13 17:12:04.771456,0.3773213942990573,0.06006808531546392,170.66851860261488,0.005521626211702824,-0.004237305372953415,-1.0003935098648071,0.0009553171694278717,-0.0026664407923817635,0.001900428207591176
2024-05-13 17:12:04.790994,0.37784865288647057,0.0596405981827431,170.6648712815981,0.00551940081641078,-0.004197557456791401,-1.0008822679519653,0.0006398236728273332,-0.0018513157265260816,0.0017765057273209095
2024-05-13 17:12:04.808820,0.3773047723933819,0.05947343197084968,170.66353256452075,0.005580573808401823,-0.004075872711837292,-1.0007414817810059,0.0001176159712485969,-0.0011582240695133805,0.002251212950795889
2024-05-13 17:12:04.824506,0.37763670357878865,0.05975634454276969,170.66345060225072,0.005778096150606871,-0.004209416452795267,-1.0006383657455444,0.0009032745729200542,-0.0015238892519846559,0.0007459452608600259
2024-05-13 17:12:04.850835,0.3776938530522346,0.060059767692519576,170.66308177203555,0.005834244191646576,-0.0041989670135080814,-1.0010957717895508,0.000637504446785897,-0.0011689296225085855,0.001978612504899502
2024-05-13 17:12:04.868229,0.37788357756468755,0.06075250495485357,170.6634779230074,0.00592764699831605,-0.004301299806684256,-1.001033067703247,0.0021061350125819445,-0.0011555675882846117,0.001632842468097806
2024-05-13 17:12:04.884462,0.37825681005023176,0.06046593716451055,170.66388773435762,0.005959429778158665,-0.004397302400320768,-1.0009795427322388,0.0016756688710302114,-0.001163281500339508,0.001571741420775652
2024-05-13 17:12:04.896758,0.3790709099023591,0.06102329127295417,170.66302713052218,0.0058747450821101665,-0.004264312330633402,-1.0011086463928223,0.0020842398516833782,-0.0017874083714559674,0.0013505948008969426
2024-05-13 17:12:04.928680,0.3789692307971758,0.060964034045819016,170.66260365879364,0.0056738643907010555,-0.0042527299374341965,-1.00105881690979,0.0006538075394928455,-0.001899102353490889,0.0012342672562226653
2024-05-13 17:12:04.944018,0.37839744257802527,0.06115367851699265,170.66372380981753,0.005586771760135889,-0.003859419608488679,-1.000773310661316,0.00015322031686082482,-0.0006640891078859568,0.00015338975936174393
2024-05-13 17:12:04.970709,0.378222739145661,0.06060263432940336,170.663300338089,0.00563399912789464,-0.004258352797478437,-1.0010485649108887,0.0005584375467151403,-0.001547416439279914,0.0006868586642667651
2024-05-13 17:12:04.988659,0.37817113920091566,0.05976252106149179,170.65616962059548,0.005423787049949169,-0.004206081852316856,-1.0006206035614014,0.001163170556537807,-0.0021518711000680923,0.0008247072692029178
2024-05-13 17:12:05.012680,0.37809072439560937,0.05941699619881113,170.64754992186295,0.005188012029975653,-0.004411340691149235,-1.0009490251541138,0.0010049529373645782,-0.0021325969137251377,0.0007677330868318677
2024-05-13 17:12:05.030541,0.37830005902149966,0.05970792623887797,170.6416349780417,0.005339600145816803,-0.004195794928818941,-1.000562310218811,0.0014383199159055948,-0.0016915516462177038,0.0008396413177251816
2024-05-13 17:12:05.044310,0.3791264585502183,0.05888456827877409,170.63749588340468,0.0055519347079098225,-0.004173370078206062,-1.000525712966919,0.0017788029508665204,-0.001591725624166429,0.0009380458504892886
2024-05-13 17:12:05.072619,0.37953877786050494,0.05877321751900437,170.63764614756641,0.005259654484689236,-0.004483487922698259,-1.0006917715072632,0.0004987028078176081,-0.00239050411619246,0.0012985109351575375
2024-05-13 17:12:05.090685,0.37964910142385655,0.05886884683749116,170.63700410978444,0.005395777989178896,-0.004198622889816761,-1.0003176927566528,0.0011018518125638366,-0.0015572060365229845,0.0017066469881683588
2024-05-13 17:12:05.101692,0.3801161156083561,0.059110244665862184,170.63358901519942,0.005571044981479645,-0.004203937016427517,-1.000676155090332,0.0011394269531592727,-0.0012537934817373753,0.0013927632244303823
2024-05-13 17:12:05.132710,0.3806971886159097,0.05813136650000829,170.62934063753568,0.005628542974591255,-0.0041209738701581955,-1.000313401222229,0.0012657212791964412,-0.0017993570072576404,0.0014621574664488435
2024-05-13 17:12:05.147445,0.38153079185976857,0.0591517193887715,170.62449120322498,0.005523146595805883,-0.004257401917129755,-1.0005898475646973,0.0008581498404964805,-0.0007230245973914862,0.002012474462389946
2024-05-13 17:12:05.168908,0.3814018186783317,0.059011180242470554,170.61977837269765,0.005647547077387571,-0.004266406409442425,-1.0007007122039795,-0.00016149756265804172,-0.0006755057838745415,0.00031623966060578823
2024-05-13 17:12:05.192293,0.38161459507923345,0.05862550133798962,170.61561195730394,0.005835074465721846,-0.004380497615784407,-1.0004154443740845,8.903568959794939e-05,-0.0008504591532982886,0.001419403008185327
2024-05-13 17:12:05.209167,0.3816990653093595,0.05840876289376072,170.61260667406916,0.005924067925661802,-0.004120231606066227,-1.0009634494781494,0.0009498638682998717,-0.0012546003563329577,0.0006652667070738971
2024-05-13 17:12:05.228750,0.3821381184069444,0.05822029236135068,170.60946478705094,0.005653642117977142,-0.004235387314110994,-1.0001343488693237,0.0008276315638795495,-0.001526412321254611,0.0016445649089291692
2024-05-13 17:12:05.252760,0.38156419575367817,0.057730172927549374,170.60779822089347,0.005638286005705595,-0.004024698864668608,-1.0014057159423828,0.00023214647080749273,-0.002476160414516926,0.0018897781847044826
2024-05-13 17:12:05.261254,0.3815926104078425,0.05791137304375305,170.6049432018204,0.005760496947914362,-0.004290553275495768,-1.0004061460494995,0.0003901554155163467,-0.0018895724788308144,0.0025341070722788572
2024-05-13 17:12:05.288539,0.38163959463881275,0.0584263986556411,170.5963781446012,0.005692711565643549,-0.004324544221162796,-1.0013327598571777,0.0005079821567051113,-0.0008733395952731371,0.003025560174137354
2024-05-13 17:12:05.318786,0.38111313646419287,0.0582363006172179,170.5909549744002,0.005397971719503403,-0.0041181896813213825,-1.000909447669983,0.0008030770113691688,-0.0018849887419492006,0.0019181619863957167
2024-05-13 17:12:05.322185,0.3819574118786299,0.0585366755282464,170.58900154029757,0.0055186753161251545,-0.003953536041080952,-1.0005875825881958,0.0014346045209094882,-0.0011785775423049927,0.0009076809510588646
2024-05-13 17:12:05.334401,0.3830431184719711,0.05823758127768727,170.5831685587464,0.005281461868435144,-0.0042971340008080006,-1.0009772777557373,0.0015260495711117983,-0.0015991405816748738,0.0007135408231988549
2024-05-13 17:12:05.372225,0.3838042309971779,0.058986440817049096,170.57833278481402,0.00573423458263278,-0.004327934700995684,-1.0004085302352905,0.0013331867521628737,-0.0014969301410019398,0.0017794194864109159
2024-05-13 17:12:05.381690,0.3839376598098312,0.05928803635758747,170.5743985958521,0.0053960043005645275,-0.003998074680566788,-1.001008152961731,0.0011002096580341458,-0.0011584148742258549,0.001279917429201305
2024-05-13 17:12:05.408730,0.38499761979165253,0.05976229427786701,170.5717348220758,0.005370278377085924,-0.004511205013841391,-1.000429630279541,0.001402072492055595,-0.0010604218114167452,7.330102380365133e-05
2024-05-13 17:12:05.428834,0.3850265413739193,0.06012861653296183,170.5693169351096,0.005368394777178764,-0.004036156460642815,-1.0007669925689697,0.0008845399133861065,-0.0008386292029172182,0.0010924064554274082
2024-05-13 17:12:05.450890,0.3856398710170453,0.0602814019950012,170.56330636863999,0.005231167189776897,-0.004347850568592548,-1.0006693601608276,0.0015309038572013378,-0.000573059543967247,0.0010725054889917374
2024-05-13 17:12:05.469082,0.3853426777468704,0.06049339132332283,170.55807444373576,0.0057749259285628796,-0.004085241351276636,-1.000540852546692,0.0013811357785016298,-0.0003907284699380398,0.001086826086975634
2024-05-13 17:12:05.490209,0.38441054368814875,0.060130784317610514,170.55177700932103,0.005721879191696644,-0.004189752973616123,-1.0009512901306152,0.0013142602983862162,-0.0013478462351486087,0.0015622692881152034
2024-05-13 17:12:05.510973,0.3850277686735358,0.06068371614537082,170.54504244279937,0.005574259907007217,-0.004438508301973343,-1.0006121397018433,0.0005353045416995883,-0.0009222072549164295,0.0007912423461675644
2024-05-13 17:12:05.534817,0.38478569716439703,0.06101155855542482,170.53858108384455,0.005664831958711147,-0.004130387678742409,-1.0011277198791504,0.000652702059596777,-0.0014677767176181078,0.0007489074487239122
2024-05-13 17:12:05.552810,0.3846949837144828,0.06118274684160487,170.53642274406684,0.0056903185322880745,-0.004439573269337416,-1.000758409500122,0.0006992373382672668,-0.0009180672350339592,0.0019636941142380238
2024-05-13 17:12:05.570849,0.38483441562308623,0.06072459722879172,170.5357260647715,0.005854328628629446,-0.004042184911668301,-1.0007840394973755,0.0007477143662981689,-0.001521285972557962,0.0008000408415682614
2024-05-13 17:12:05.589012,0.38469607761196706,0.06078785651989368,170.53120447954095,0.005646301433444023,-0.004253112245351076,-1.0009665489196777,0.00042091659270226955,-0.0015303698601201177,0.0011036299401894212
2024-05-13 17:12:05.603545,0.38526711877917713,0.059598576511091655,170.52789866798264,0.005658765323460102,-0.0042618997395038605,-1.0009576082229614,0.0010062817018479109,-0.0019342938903719187,0.0012854353990405798
2024-05-13 17:12:05.631029,0.38447860545601087,0.05952727307141642,170.52489338474786,0.005481853149831295,-0.00418010912835598,-1.0008175373077393,0.0009568213718011975,-0.0018451453652232885,0.0018974042031913996
2024-05-13 17:12:05.648505,0.38530713941884515,0.059882502939216584,170.5213007052444,0.0054203420877456665,-0.004356915131211281,-1.000895380973816,0.00124391820281744,-0.0009791965130716562,0.001411324250511825
2024-05-13 17:12:05.664084,0.38607542897876584,0.05995113833624728,170.516341987907,0.005597994662821293,-0.003767108777537942,-1.000757098197937,0.0012963542249053717,-0.0016698813997209072,0.0005797329940833151
2024-05-13 17:12:05.690803,0.38653182435354017,0.059301890169019225,170.51095979884101,0.005068532656878233,-0.004431116860359907,-1.0009065866470337,0.001884547295048833,-0.0012331610778346658,0.0010260988492518663
2024-05-13 17:12:05.708824,0.3861498140076955,0.05926266994214454,170.50591911923354,0.005340450443327427,-0.004251502454280853,-1.0004189014434814,0.00094236945733428,-0.0017122919671237469,0.0020813646260648966
2024-05-13 17:12:05.732822,0.38644351214200606,0.059391943278378934,170.5032690058356,0.005270941182971001,-0.004266662057489157,-1.0013182163238525,0.0015315262135118246,-0.0016804597107693553,0.0011472100159153342
2024-05-13 17:12:05.744325,0.386199626363869,0.05984374294969809,170.50273625108034,0.005218762904405594,-0.004018950741738081,-1.000460147857666,0.000655558833386749,-0.0009573220741003752,0.0015222368529066443
2024-05-13 17:12:05.768980,0.38585219385069747,0.06012462780920825,170.50000417541233,0.005567791406065226,-0.003991745878010988,-1.0013542175292969,0.00038036538171581924,-0.0012473136885091662,0.00012471145601011813
2024-05-13 17:12:05.792714,0.38518238174478664,0.05973610743931088,170.49454002407631,0.005496203899383545,-0.004213192034512758,-1.000663161277771,0.00032604840816929936,-0.0013522673398256302,0.0009166005766019225
2024-05-13 17:12:05.803059,0.3848146187466638,0.06036773985497839,170.4873410046911,0.00568747241050005,-0.004143119789659977,-1.0009517669677734,0.0007263253210112453,-0.0009133630665019155,0.0005450170137919486
2024-05-13 17:12:05.829004,0.38484033867775713,0.05942800854482645,170.4841581365379,0.005302198696881533,-0.004365613684058189,-1.0012108087539673,0.0008483326528221369,-0.0018386734882369637,0.001358361798338592
2024-05-13 17:12:05.852702,0.3847870578661457,0.05903023673705916,170.48212274016524,0.005390355829149485,-0.004134453367441893,-1.0006204843521118,0.0005843405378982425,-0.0013329654466360807,0.001307186670601368
2024-05-13 17:12:05.865586,0.3841941654296769,0.05909047446986617,170.47951360790228,0.0055352444760501385,-0.0038348562084138393,-1.0011755228042603,0.0009160778718069196,-0.0008956712554208934,0.00138067954685539
2024-05-13 17:12:05.888955,0.3844422667151923,0.05913777219584719,170.47776507947475,0.0056749023497104645,-0.004191262181848288,-1.000417947769165,0.0012201451463624835,-0.0018083293689414859,0.0017647410277277231
2024-05-13 17:12:05.912268,0.38398528437103613,0.05935928643640981,170.47835247574338,0.0056052859872579575,-0.003895454341545701,-1.0011204481124878,0.0006858512060716748,-0.0012450218200683594,0.00036340721999295056
2024-05-13 17:12:05.927896,0.3832071764141836,0.059686468505909286,170.47769677758305,0.005269285757094622,-0.004426698666065931,-1.000702977180481,0.0012690065195783973,-0.0004358490987215191,0.0008159964927472174
2024-05-13 17:12:05.948998,0.3835955100210958,0.05953805196370035,170.4779153436365,0.0055293426848948,-0.004186450969427824,-1.0010275840759277,0.0012049059150740504,-0.0010745124891400337,0.0011386983096599579
2024-05-13 17:12:05.972955,0.3834840125189807,0.060709622839449265,170.476931796396,0.005475027486681938,-0.004091502632945776,-1.0013175010681152,0.0012260159710422158,-0.000569032970815897,0.0008133259834721684
2024-05-13 17:12:05.990608,0.38245823016343583,0.060553295550799274,170.47725964547618,0.0053837234154343605,-0.004299431573599577,-1.0007792711257935,-0.00034669041633605957,-0.0016532589215785265,0.0018070610240101814
2024-05-13 17:12:06.008948,0.3817016533107247,0.06048053135777616,170.47622145672233,0.005388191901147366,-0.004441770259290934,-1.0013054609298706,4.1629537008702755e-05,-0.0017622638260945678,0.0008496427908539772
2024-05-13 17:12:06.032732,0.38192024604459157,0.060399156057117806,170.47165889035676,0.005188974551856518,-0.004392237868160009,-1.0006814002990723,0.0010877749882638454,-0.0015594980213791132,0.0013099686475470662
2024-05-13 17:12:06.042369,0.38278095660171896,0.05993092124310831,170.46469209740334,0.005450483411550522,-0.003860464785248041,-1.0011118650436401,0.002066519344225526,-0.0025835551787167788,0.0007534406031481922
2024-05-13 17:12:06.068996,0.38401639374827146,0.06065434766596108,170.46462379551164,0.005239698104560375,-0.00408812565729022,-1.000813603401184,0.0011527118040248752,-0.0011227208888158202,0.0013974136672914028
2024-05-13 17:12:06.092887,0.38416268252647134,0.06053668031523043,170.46441888983657,0.005351569503545761,-0.004278283566236496,-1.0007973909378052,0.001327859004959464,-0.0017392963636666536,0.0023396338801831007
2024-05-13 17:12:06.103312,0.38418154558796824,0.0603901514131925,170.46200100287038,0.005468017887324095,-0.004404137842357159,-1.0007495880126953,0.0008385683759115636,-0.0014205783372744918,0.0019075734307989478
2024-05-13 17:12:06.115265,0.3841170856776762,0.060065403932606155,170.45868153093375,0.0055029792711138725,-0.004404657986015081,-1.000791072845459,0.00022355219698511064,-0.0018257239134982228,0.0012660431675612926
2024-05-13 17:12:06.152299,0.3833688597984425,0.05994897722170521,170.45558062505054,0.005554216913878918,-0.00403108773753047,-1.000666618347168,0.00037055640132166445,-0.0013153739273548126,0.0017296373844146729
2024-05-13 17:12:06.162141,0.38340794662318495,0.059388614895179874,170.45144153041352,0.005522158462554216,-0.004270929377526045,-1.000633716583252,8.278927998617291e-05,-0.002173210261389613,0.0017058122903108597
2024-05-13 17:12:06.188841,0.38323516418152476,0.060530110260218255,170.44959737933763,0.005614162422716618,-0.004061632324010134,-1.000526785850525,0.001112664584070444,-0.0008635490667074919,0.0014348523691296577
2024-05-13 17:12:06.209366,0.38362851370860873,0.061190517515807084,170.44795813393682,0.005560025572776794,-0.004136799369007349,-1.0006364583969116,0.0008854031329974532,-0.0009594191797077656,0.00192015222273767
2024-05-13 17:12:06.221114,0.38335354523366283,0.06124908772196127,170.44261692600588,0.005810911767184734,-0.004336745012551546,-1.0006190538406372,0.00045218353625386953,-0.0012984132627025247,0.0014947336167097092
2024-05-13 17:12:06.248239,0.38387594798346303,0.06027550562075677,170.43671564256297,0.005744565278291702,-0.004412125330418348,-1.00057852268219,0.0006576981395483017,-0.0026169419288635254,0.0006376211531460285
2024-05-13 17:12:06.271677,0.38302492242113534,0.06059450346944414,170.4344753405152,0.005619823932647705,-0.004394808318465948,-1.0007774829864502,0.0007690936326980591,-0.0004871342680417001,0.001785184140317142
2024-05-13 17:12:06.291025,0.3828177755902135,0.06132408640069918,170.42883360426077,0.005795767530798912,-0.004206176847219467,-1.0007882118225098,0.00037573860026896,-0.0004252699436619878,0.0013042744249105453
2024-05-13 17:12:06.309014,0.38156873142617387,0.060093498421653124,170.42021390552824,0.005540923215448856,-0.004405906889587641,-1.0009469985961914,-0.00089572265278548,-0.002537664957344532,0.0017548705218359828
2024-05-13 17:12:06.324263,0.38149992260637133,0.06024028078774228,170.41988605644806,0.005607484839856625,-0.004344952758401632,-1.00106942653656,0.0014680683379992843,-0.0013094078749418259,0.000515545136295259
2024-05-13 17:12:06.350469,0.38056026466739207,0.05968140589499128,170.41723594305012,0.005571054294705391,-0.004231373779475689,-1.000805139541626,-0.0003612315049394965,-0.001206331653520465,0.0014960072003304958
2024-05-13 17:12:06.368295,0.38014477038635847,0.06010168264246524,170.41591088635113,0.005610957276076078,-0.004181352443993092,-1.0009281635284424,0.0008229599334299564,-0.0014584033051505685,0.0010476799216121435
2024-05-13 17:12:06.383940,0.3802518389376837,0.06021593489861089,170.41211330117258,0.005653446074575186,-0.004414829425513744,-1.0009324550628662,0.0003564822254702449,-0.00198273453861475,0.0015307347057387233
2024-05-13 17:12:06.410762,0.37978122289561395,0.05995339283228191,170.40991398025986,0.005267203785479069,-0.004433818627148867,-1.0009706020355225,0.000859644147567451,-0.001100307097658515,0.0018880916759371758
2024-05-13 17:12:06.428847,0.38035701317873133,0.06071532578060196,170.40970907458475,0.005391619633883238,-0.004047222435474396,-1.0011086463928223,0.0016388824442401528,-0.0003227231791242957,0.0015346496365964413
2024-05-13 17:12:06.452960,0.38001574384406867,0.060399042665305415,170.40707262156513,0.005209216848015785,-0.00401703268289566,-1.0007249116897583,0.0010994125623255968,-0.001455152640119195,0.0008676121942698956
2024-05-13 17:12:06.470853,0.3808275491795217,0.0606932343875052,170.40234613065948,0.0053741298615932465,-0.004288580734282732,-1.0007320642471313,0.001574838999658823,-0.0013690127525478601,0.0020049887243658304
2024-05-13 17:12:06.485862,0.3810349894951344,0.0609387943624017,170.39884907380443,0.005162729416042566,-0.004523123614490032,-1.0006518363952637,0.001687969546765089,-0.0014050465542823076,0.0020505066495388746
2024-05-13 17:12:06.512621,0.38055690293365996,0.060375610580779775,170.39707322462021,0.005217499099671841,-0.004062684252858162,-1.000840425491333,0.0011330252746120095,-0.0015488611534237862,0.002244597300887108
2024-05-13 17:12:06.530518,0.38050324859607837,0.060147786419362824,170.39861684737264,0.005409003235399723,-0.003888893872499466,-1.0006129741668701,0.001269269036129117,-0.0015552830882370472,0.0006364245200529695
2024-05-13 17:12:06.548781,0.38045927925329637,0.06035491323996478,170.39271556392976,0.005383786745369434,-0.004231482744216919,-1.0008184909820557,0.0007462217472493649,-0.0014935117214918137,0.0006535733700729907
2024-05-13 17:12:06.571220,0.38047438037466447,0.05994810343773912,170.38725141259374,0.005534092430025339,-0.004472753033041954,-1.000597596168518,0.0015406209276989102,-0.0012376178056001663,0.0020362534560263157
2024-05-13 17:12:06.584036,0.3801606719205199,0.05958323526588557,170.38379533687373,0.005728504154831171,-0.00392933189868927,-1.0008379220962524,0.0002950947091449052,-0.001987258205190301,0.0006283868569880724
2024-05-13 17:12:06.608768,0.37999754779323297,0.05962792498018155,170.38039390266707,0.0056436373852193356,-0.003980445209890604,-1.0008341073989868,0.00015236512990668416,-0.0006882111192680895,0.00036666978849098086
2024-05-13 17:12:06.624988,0.3790712834283293,0.059696527026679186,170.37971088375005,0.005784243810921907,-0.003885574173182249,-1.0008881092071533,-0.0004368890658952296,-0.0012166055385023355,0.0006011087680235505
2024-05-13 17:12:06.650139,0.3792143972357822,0.058698198829946625,170.3779486949442,0.005738654639571905,-0.004396643489599228,-1.0007354021072388,-0.00016160085215233266,-0.002344941720366478,0.0007688789628446102
2024-05-13 17:12:06.668728,0.37897691475999207,0.059214351689851986,170.37583133630147,0.006006454583257437,-0.004328436218202114,-1.0009164810180664,0.0006470697117038071,-0.0015743349213153124,0.00198066933080554
2024-05-13 17:12:06.679769,0.3792761891034297,0.05960099108968496,170.37207473225797,0.005827281158417463,-0.004062272142618895,-1.0008736848831177,0.0011423336109146476,-0.0011951258638873696,0.0016873145941644907
2024-05-13 17:12:06.711011,0.37873428296189793,0.05961026253787472,170.3702032604254,0.0058205644600093365,-0.004119324032217264,-1.0009334087371826,0.0001610856270417571,-0.001938671455718577,0.0011310817208141088
2024-05-13 17:12:06.726235,0.3795042800691111,0.059693405416785084,170.36805858102602,0.005618575029075146,-0.004370216745883226,-1.0012818574905396,0.0006786257727071643,-0.0013920110650360584,0.0019767535850405693
2024-05-13 17:12:06.740581,0.3793530820924452,0.05954575593683645,170.3685640150246,0.005655303597450256,-0.004370588809251785,-1.0006223917007446,0.00022929831175133586,-0.001867747982032597,0.0005321057396940887
2024-05-13 17:12:06.770866,0.3798178818015499,0.059093322605389215,170.36406975055073,0.005640372633934021,-0.004093415569514036,-1.0008777379989624,0.0013945752289146185,-0.0013508193660527468,0.0002604121691547334
2024-05-13 17:12:06.786662,0.38011099296647866,0.05821382235793768,170.35401571209246,0.005254852119833231,-0.004038522019982338,-1.0008784532546997,0.0014216129202395678,-0.0013942078221589327,0.001045198761858046
2024-05-13 17:12:06.812873,0.3800593930217333,0.05762201714884649,170.34989027783377,0.005448841489851475,-0.00423237681388855,-1.0010424852371216,0.000771131191868335,-0.002003819914534688,0.0021058586426079273
2024-05-13 17:12:06.830722,0.3799618760630755,0.05743305302854721,170.34734944746253,0.005010723602026701,-0.004152312409132719,-1.0006240606307983,0.00035000580828636885,-0.0017727607628330588,0.0021075240802019835
2024-05-13 17:12:06.836903,0.3787921261264315,0.0571634339791036,170.34490423973966,0.005129506811499596,-0.004268347751349211,-1.0006136894226074,4.028429975733161e-05,-0.0017867621500045061,0.0012108414666727185
2024-05-13 17:12:06.872884,0.3787238509151578,0.05753291119462559,170.34308740942043,0.005154127720743418,-0.0039242953062057495,-1.0009071826934814,-3.512527473503724e-05,-0.0012709329603239894,0.001259060576558113
2024-05-13 17:12:06.890872,0.3788398307289158,0.057828530319640206,170.33939910726863,0.0050552235916256905,-0.004342852625995874,-1.0004807710647583,0.0003482296597212553,-0.0009184824884869158,0.0015150103718042374
2024-05-13 17:12:06.908777,0.3785893548854467,0.058221646392992786,170.3350551069565,0.005539114121347666,-0.004449682775884867,-1.0008745193481445,0.0005914232460781932,-0.0013872891431674361,0.0016248567262664437
2024-05-13 17:12:06.932267,0.3795801058410688,0.05767164274203486,170.33598401268364,0.005336105823516846,-0.004469625186175108,-1.0006868839263916,0.001798992045223713,-0.0025580106303095818,0.0017690036911517382
2024-05-13 17:12:06.950732,0.37948290904752835,0.05699876905718944,170.3389073336484,0.00580219179391861,-0.004081201273947954,-1.0011072158813477,0.0012637143954634666,-0.001322321710176766,0.0017346314853057265
2024-05-13 17:12:06.961272,0.37993831724652427,0.057377997968577205,170.3394810695387,0.005560886114835739,-0.004232512786984444,-1.0008691549301147,0.0011911416659131646,-0.0014223505277186632,0.0012629636330530047
2024-05-13 17:12:06.992189,0.37972329968980106,0.05711530915990278,170.33594303154862,0.00569663941860199,-0.004371703136712313,-1.0012634992599487,0.000987862586043775,-0.0015067667700350285,0.00019070609414484352
2024-05-13 17:12:07.010879,0.3799367164209375,0.05684434941903029,170.33256891809862,0.0057410928420722485,-0.004076115787029266,-1.0008792877197266,0.0005145561881363392,-0.0014053074410185218,0.0013293367810547352
2024-05-13 17:12:07.021861,0.3797769540273827,0.05744649996347567,170.3271320875193,0.005638678092509508,-0.004147446248680353,-1.0010590553283691,0.001084787305444479,-0.0011824052780866623,0.0012505953200161457
2024-05-13 17:12:07.052242,0.3804286501237371,0.05663412099885406,170.32280174758552,0.0057507785968482494,-0.0038659339770674706,-1.0009562969207764,0.0017847707495093346,-0.0016349500510841608,0.0019763922318816185
2024-05-13 17:12:07.070744,0.3807560723170746,0.05710975963120214,170.32090295499626,0.005627661477774382,-0.004378977697342634,-1.0012538433074951,0.0015782006084918976,-0.0007460323395207524,0.0018148156814277172
2024-05-13 17:12:07.084132,0.38073734265771,0.0571502004875867,170.32019261532255,0.005678226239979267,-0.004181309137493372,-1.0008398294448853,0.0006781138945370913,-0.0011390107683837414,0.0013981099473312497
2024-05-13 17:12:07.118322,0.3802125920303826,0.05825124832613391,170.31770642646467,0.005654392763972282,-0.003924390766769648,-1.0009675025939941,5.0081172958016396e-05,-0.0021000555716454983,0.000927001005038619
2024-05-13 17:12:07.130728,0.38031192325803864,0.0575579107542049,170.3157393319837,0.005440055392682552,-0.004530450329184532,-1.0009417533874512,0.001028785016387701,-0.001224645646288991,0.0011465965071693063
2024-05-13 17:12:07.146996,0.38012758819172765,0.057090583074694536,170.3200286907825,0.005631208885461092,-0.004124840721487999,-1.0009146928787231,0.000969979795627296,-0.002116505289450288,0.0012096103746443987
2024-05-13 17:12:07.172141,0.37991435822357633,0.0567027830763112,170.3208209927262,0.005267378408461809,-0.004493409767746925,-1.0010488033294678,0.0005090210470370948,-0.0016489316476508975,0.0007984454859979451
2024-05-13 17:12:07.190834,0.37955713399389934,0.05665078292516919,170.32424974768955,0.005583629012107849,-0.004183181561529636,-1.0008065700531006,0.0005554926465265453,-0.0014401017688214779,0.0016825010534375906
2024-05-13 17:12:07.209073,0.3797085187335503,0.05669695340313288,170.32023359645757,0.005388687364757061,-0.004228243138641119,-1.0005669593811035,0.0010831555118784308,-0.0013638983946293592,0.0012378157116472721
2024-05-13 17:12:07.232226,0.3795781581699383,0.05683148278337701,170.3187309548402,0.005359986796975136,-0.004324920475482941,-1.0006561279296875,0.0005622284952551126,-0.001164942397736013,0.0015714068431407213
2024-05-13 17:12:07.250280,0.37904564353851533,0.05664900200670396,170.3167911811159,0.005378474947065115,-0.004149885382503271,-1.0002968311309814,0.0001599489914951846,-0.0015217997133731842,0.002208252204582095
2024-05-13 17:12:07.261781,0.37842804502715804,0.05601305403205891,170.31445525641976,0.005642592441290617,-0.004120704717934132,-1.0006650686264038,-0.00043126303353346884,-0.0022862902842462063,0.0015807986492291093
2024-05-13 17:12:07.292321,0.3787738767147429,0.05638908796237985,170.31139533167158,0.00550578348338604,-0.004085668828338385,-1.0004615783691406,0.0006532337283715606,-0.0010294100502505898,0.001294502755627036
2024-05-13 17:12:07.310732,0.37848986357523196,0.056460204639069964,170.30889548243536,0.005680788774043322,-0.004119508434087038,-1.0010234117507935,0.0005918570095673203,-0.0015531035605818033,0.001599168055690825
2024-05-13 17:12:07.321836,0.37834098679566686,0.056096390344061005,170.30613608601067,0.005811694078147411,-0.004124409984797239,-1.0002985000610352,0.0001609157188795507,-0.001685952884145081,0.0011623589089140296
2024-05-13 17:12:07.352305,0.3781566784097823,0.05648951308752019,170.30333570845096,0.005853458773344755,-0.003910212777554989,-1.0010380744934082,0.0005386664997786283,-0.001240317476913333,0.0010947776027023792
2024-05-13 17:12:07.365841,0.37858337846992296,0.05570064624870356,170.30557601049873,0.0057899137027561665,-0.004294834099709988,-1.000538945198059,0.0009181505301967263,-0.002337917685508728,0.0009486032649874687
2024-05-13 17:12:07.389110,0.37894815326028397,0.05601627569355219,170.30625902941574,0.0059374612756073475,-0.004181296098977327,-1.0010254383087158,0.0007620632532052696,-0.0019991868175566196,0.0013577203499153256
2024-05-13 17:12:07.412817,0.3791931329359053,0.05557190652099807,170.30466076514995,0.005571699235588312,-0.004497072193771601,-1.0007764101028442,0.0006017297273501754,-0.002053334377706051,0.0014608890051022172
2024-05-13 17:12:07.427953,0.3790606379381776,0.05518029789173966,170.30243412348054,0.0055769989266991615,-0.004258143715560436,-1.0008559226989746,0.0009534875862300396,-0.002036110730841756,0.0010935196187347174
2024-05-13 17:12:07.448833,0.37824693829244693,0.05483120118696862,170.29841797224856,0.005409946199506521,-0.004217779729515314,-1.0006450414657593,0.0003840252466034144,-0.0024003100115805864,0.001447971211746335
2024-05-13 17:12:07.472832,0.3783915728842073,0.055429226270474884,170.2971338966846,0.005611789878457785,-0.0041647073812782764,-1.0007269382476807,0.0003508272930048406,-0.0017834510654211044,0.001453090226277709
2024-05-13 17:12:07.490449,0.3779618846163047,0.05533128576004726,170.29345925491114,0.005327683873474598,-0.00433537270873785,-1.0007072687149048,0.0007886823150329292,-0.0013171362224966288,0.0007083897944539785
2024-05-13 17:12:07.509131,0.3776522849478327,0.054943839277314326,170.2951941229603,0.00526350038126111,-0.004152281209826469,-1.000847578048706,0.0003204941749572754,-0.0012428080663084984,0.0021406037267297506
2024-05-13 17:12:07.532782,0.3783527795441557,0.05499582942329642,170.29351389642449,0.005546665750443935,-0.0040183886885643005,-1.0006189346313477,0.0010452999267727137,-0.002219191286712885,0.001780197722837329
2024-05-13 17:12:07.543091,0.3783032339922467,0.05477459866226478,170.28942944330083,0.005240012891590595,-0.004237031098455191,-1.000662922859192,0.0012301160022616386,-0.0014290454564616084,0.0008696713484823704
2024-05-13 17:12:07.568793,0.37856737021405573,0.054611121019327434,170.2916424245919,0.005474870093166828,-0.004315387457609177,-1.0004698038101196,0.00021465073223225772,-0.0018620936898514628,0.00035141606349498034
2024-05-13 17:12:07.587258,0.3784421056118948,0.05406135749220752,170.29531706636539,0.005508720874786377,-0.003966831136494875,-1.0011606216430664,0.00029874435858801007,-0.0021313356701284647,0.00016578129725530744
2024-05-13 17:12:07.610967,0.3794343773518242,0.05445407335916342,170.29791253825,0.005709121003746986,-0.004161902237683535,-1.0006967782974243,0.0015966142527759075,-0.0017189013306051493,0.0010082548251375556
2024-05-13 17:12:07.628794,0.3791962011849465,0.05425017487016135,170.29946982138074,0.005800193175673485,-0.004001727793365717,-1.0010403394699097,0.0007818113663233817,-0.0010657354723662138,0.0008462182595394552
2024-05-13 17:12:07.646631,0.3787076025354526,0.05457343158192005,170.30005721764937,0.005787646863609552,-0.0045102848671376705,-1.0006285905838013,0.0004766001948155463,-0.0011645660270005465,0.000983907375484705
2024-05-13 17:12:07.671039,0.37834773694355756,0.054071105853019996,170.300685595053,0.005942916497588158,-0.003768043825402856,-1.0007448196411133,0.0007310127257369459,-0.0018329974263906479,0.0001542404934298247
2024-05-13 17:12:07.689262,0.378528923719548,0.05454226217372526,170.3041280103947,0.005784028209745884,-0.004080716986209154,-1.0008140802383423,0.00044693570816889405,-0.0010503605008125305,0.0010445076040923595
2024-05-13 17:12:07.709133,0.37874428812181493,0.054047823845893114,170.30593118033556,0.005867505446076393,-0.004012646619230509,-1.0007041692733765,0.0008872225880622864,-0.0012408248148858547,0.001024157158099115
2024-05-13 17:12:07.730879,0.37841358423602467,0.05459223461245742,170.3083627276801,0.005577984265983105,-0.0040539707988500595,-1.0009918212890625,0.0011743697104975581,-0.0007474110461771488,0.0008390539442189038
2024-05-13 17:12:07.748396,0.3783140128845306,0.05411297411221938,170.31165487886005,0.005717422813177109,-0.004200272262096405,-1.000543475151062,0.0013893774012103677,-0.0015249727293848991,0.0006707321153953671
2024-05-13 17:12:07.771561,0.3774232068063728,0.0549325901425143,170.31292529404567,0.005569342989474535,-0.004186075180768967,-1.000968337059021,0.00040834146784618497,-0.0015806577866896987,0.0009579146280884743
2024-05-13 17:12:07.791053,0.37788064271777855,0.054703998918837045,170.3103434825394,0.005268224980682135,-0.004436041694134474,-1.0010685920715332,0.0006991885020397604,-0.001962577924132347,0.0008200306328944862
2024-05-13 17:12:07.808825,0.3777945449816394,0.05478637807054041,170.3081851427617,0.005611319560557604,-0.004131733905524015,-1.000701665878296,0.0009302091202698648,-0.002304124180227518,0.0010933501180261374
2024-05-13 17:12:07.823888,0.3776648514286885,0.05564151241854071,170.3069557087111,0.005401552189141512,-0.0043739574030041695,-1.000991940498352,0.0011693552369251847,-0.0012157289311289787,0.0006465131300501525
2024-05-13 17:12:07.850371,0.37762565788224023,0.055402906029786536,170.30992001081086,0.005186113063246012,-0.004470535553991795,-1.000603437423706,0.0005930144106969237,-0.0015011411160230637,0.001192521071061492
2024-05-13 17:12:07.868359,0.37714135478140404,0.05468454555290507,170.31166853923838,0.005500740837305784,-0.004411195870488882,-1.0007234811782837,3.2796764571685344e-05,-0.002571490127593279,0.0012771772453561425
2024-05-13 17:12:07.883487,0.37674669791342424,0.05439805113373477,170.31349902993594,0.005181849934160709,-0.004150325898081064,-1.0009400844573975,0.0005577903939411044,-0.0021973338443785906,0.000687099527567625
2024-05-13 17:12:07.910009,0.3759143753300347,0.054814909451570415,170.31394982242116,0.00550047168508172,-0.003979774657636881,-1.0006428956985474,0.0012201317586004734,-0.0008739160839468241,7.223847205750644e-05
2024-05-13 17:12:07.927812,0.37589804690905015,0.054993731674767156,170.31486506776994,0.005402930546551943,-0.00403328612446785,-1.0010566711425781,0.0009307737927883863,9.327076259069145e-05,0.0011095651425421238
2024-05-13 17:12:07.952697,0.3756611514026418,0.05588580840823437,170.31524755836347,0.005576559342443943,-0.004213356412947178,-1.0006483793258667,0.00043018063297495246,1.4567107427865267e-05,0.00031584606040269136
2024-05-13 17:12:07.969912,0.3758918303696884,0.0555686881945581,170.31796597365314,0.0055862595327198505,-0.0040091113187372684,-1.000740885734558,0.00036982118035666645,-0.0018336907960474491,0.0008849416044540703
2024-05-13 17:12:07.980323,0.3758738477622642,0.056992912703584676,170.31864899257013,0.005469856783747673,-0.0040763611905276775,-1.0007117986679077,0.0009182365611195564,-0.0009015550022013485,0.0002668943488970399
2024-05-13 17:12:08.018749,0.3759958306719724,0.05800833638356211,170.31990574737742,0.005653251428157091,-0.00406817439943552,-1.0005550384521484,0.0010326141491532326,-0.0010600496316328645,0.0013305179309099913
2024-05-13 17:12:08.030900,0.3765928852549667,0.05845678099125576,170.32185918148005,0.005686955526471138,-0.004372807219624519,-1.0011990070343018,0.0009486214257776737,-0.0008791498839855194,0.0018788989400491118
2024-05-13 17:12:08.041651,0.3752609716863878,0.058286706612879796,170.3154661244169,0.005979792680591345,-0.004156333394348621,-1.0001295804977417,6.501586176455021e-05,-0.0008786438847891986,0.00042386428685858846
2024-05-13 17:12:08.072746,0.37539317319942456,0.05852316856235843,170.31702340754768,0.005765904206782579,-0.003969906829297543,-1.001381278038025,0.0005462202825583518,-0.0012760220561176538,0.0012098560109734535
2024-05-13 17:12:08.091092,0.3751947775483768,0.05847822538401122,170.31868997370515,0.005850936286151409,-0.00409363629296422,-1.0001732110977173,0.000659623765386641,-0.0017159839626401663,0.000982476631179452
2024-05-13 17:12:08.101576,0.37433585457982127,0.05826845053108456,170.3200286907825,0.005962044931948185,-0.004135509021580219,-1.0011619329452515,0.00011191144585609436,-0.0013893786817789078,0.0010905696544796228
2024-05-13 17:12:08.132921,0.3742016520348011,0.05834025422875564,170.32317057780068,0.005710022523999214,-0.004379317630082369,-1.000825047492981,0.0013285753084346652,-0.0005322471261024475,0.00038578337989747524
2024-05-13 17:12:08.147606,0.3738441610008597,0.05805910256498102,170.3244409929863,0.005602200049906969,-0.004168408922851086,-1.0008176565170288,9.271613089367747e-05,-0.0015651118010282516,0.0001771383103914559
2024-05-13 17:12:08.169060,0.3738407725867012,0.05778923672159279,170.32567042703693,0.005343311466276646,-0.004162369295954704,-1.0009592771530151,0.00014586080214940012,-0.001885674661025405,0.0014538951218128204
2024-05-13 17:12:08.192860,0.3741527734935532,0.057524566891254805,170.32639442708893,0.005377862602472305,-0.00423774216324091,-1.0007388591766357,0.0010857904562726617,-0.001323016476817429,-9.745405986905098e-05
2024-05-13 17:12:08.209236,0.3750183132078672,0.0578379952009217,170.32840250270493,0.005413456354290247,-0.004240965936332941,-1.0011682510375977,0.0006067387294024229,-0.001353021478280425,0.0014521977864205837
2024-05-13 17:12:08.228898,0.37547988458537196,0.05841560642314395,170.33158537085814,0.005132175516337156,-0.004198609385639429,-1.0003973245620728,0.0013542436063289642,-0.001026165671646595,0.0014285917859524488
2024-05-13 17:12:08.252861,0.37519413721814215,0.05909388956445118,170.3356288428468,0.005254113581031561,-0.004039195366203785,-1.0011837482452393,0.001262963516637683,-0.0010019398760050535,0.001165064051747322
2024-05-13 17:12:08.262575,0.3748918479865162,0.05947131087694727,170.3367899750057,0.005379078444093466,-0.003985292743891478,-1.0005805492401123,0.000889092218130827,-0.00015993183478713036,0.0015032432274892926
2024-05-13 17:12:08.289075,0.37617120111499774,0.05959953700644369,170.33386665404092,0.005800946149975061,-0.0041543859988451,-1.0009745359420776,0.0014623072929680347,-0.001549550797790289,0.0015442396979779005
2024-05-13 17:12:08.312931,0.375137814837916,0.058315214648536666,170.33345684269074,0.005607860628515482,-0.0041826581582427025,-1.0006146430969238,0.00031876121647655964,-0.002496658591553569,0.00020834332099184394
2024-05-13 17:12:08.322605,0.37574954365545526,0.058912702788460725,170.33602499381865,0.005642006639391184,-0.004296860657632351,-1.000759243965149,0.0007210745243355632,-0.0008774837478995323,0.0008995017851702869
2024-05-13 17:12:08.334118,0.3763674890123563,0.058288720985076425,170.3393854468903,0.005621465388685465,-0.004038060549646616,-1.000795841217041,0.001375323161482811,-0.0012148350942879915,0.0009674606844782829
2024-05-13 17:12:08.372977,0.3768019263961661,0.05781770473661,170.33975427710547,0.005861587356775999,-0.004389658570289612,-1.0004931688308716,0.0009332617046311498,-0.0011655851267278194,0.0018959649605676532
2024-05-13 17:12:08.382091,0.37675131362719927,0.058344209601976164,170.34058756018422,0.005789646878838539,-0.004071132745593786,-1.0006263256072998,0.0003082609619013965,-0.0013622307451441884,0.0006077022990211844
2024-05-13 17:12:08.409195,0.37642165027804037,0.05799306183942214,170.3416120885597,0.005571615882217884,-0.004078248981386423,-1.0006850957870483,0.0013414390850812197,-0.001894689630717039,0.0008960798149928451
2024-05-13 17:12:08.429516,0.37649891679302616,0.058097022121066495,170.34188529612652,0.0057357437908649445,-0.004214598331600428,-1.0008583068847656,0.0004952090093865991,-0.0019342604791745543,0.0007775007979944348
2024-05-13 17:12:08.450918,0.37663560061770573,0.057328092230911155,170.3440982774176,0.005673262756317854,-0.004396913573145866,-1.0004639625549316,0.001176599645987153,-0.00115383870434016,0.0016381164314225316
2024-05-13 17:12:08.468392,0.3760090641634893,0.05778866976253083,170.34536869260322,0.00586084695532918,-0.00419146241620183,-1.000837802886963,0.0008864377741701901,-0.0018090629018843174,0.001010280568152666
2024-05-13 17:12:08.490781,0.3759110936375819,0.057395186833314626,170.34513646617145,0.005795780569314957,-0.003874290268868208,-1.0007182359695435,0.001587611623108387,-0.0021240515634417534,0.0004069147980771959
2024-05-13 17:12:08.511104,0.37604108067522374,0.05746554311785105,170.34255465466518,0.005231773946434259,-0.004347120877355337,-1.0009193420410156,0.0018369603203609586,-0.0015833638608455658,0.0004991125897504389
2024-05-13 17:12:08.528663,0.37575287870876095,0.057204955392759195,170.34491790011802,0.005506596062332392,-0.004112700931727886,-1.0006779432296753,0.0012958361767232418,-0.00198552873916924,0.0008371992153115571
2024-05-13 17:12:08.553087,0.3754016308946077,0.05741449012184785,170.34378408871578,0.005554969888180494,-0.004153856076300144,-1.001047968864441,-0.00021396494412329048,-0.0015080302255228162,0.001217947923578322
2024-05-13 17:12:08.571072,0.37594647188304847,0.05738494154955961,170.34741774935424,0.005393458064645529,-0.004109800793230534,-1.0007655620574951,0.0015121663454920053,-0.0015219354536384344,0.002499560359865427
2024-05-13 17:12:08.589174,0.37589705973327164,0.057189367353608495,170.35012250426556,0.005421072710305452,-0.0037719032261520624,-1.0009346008300781,0.001308424980379641,-0.002254358259961009,0.0010856855660676956
2024-05-13 17:12:08.604327,0.37535835524291333,0.057282468701689584,170.35504024046796,0.005240015219897032,-0.004372736904770136,-1.0004947185516357,0.0005201985477469862,-0.00245846388861537,0.0020913565531373024
2024-05-13 17:12:08.615797,0.37533418277655384,0.05663995067203237,170.36107812769427,0.005471457727253437,-0.003917039837688208,-1.000859260559082,0.0009762533009052277,-0.002054072916507721,0.002037727739661932
2024-05-13 17:12:08.648634,0.3752059833274839,0.056874765105178006,170.36427465622583,0.005605084355920553,-0.004244527779519558,-1.000784993171692,5.097332177683711e-06,-0.0017625001491978765,0.0011520955013111234
2024-05-13 17:12:08.664193,0.37606157124273376,0.056248388733520234,170.3712004680442,0.005600235890597105,-0.003992673475295305,-1.0004215240478516,0.001454565324820578,-0.0024844894651323557,0.001494204392656684
2024-05-13 17:12:08.697005,0.3763173831714919,0.05609544318892219,170.3804485441804,0.005671678110957146,-0.004162375349551439,-1.0010825395584106,0.0011559121776372194,-0.0012346610892564058,0.0015761156100779772
2024-05-13 17:12:08.709045,0.3719645516382104,0.055006568294940675,170.39096703550223,-0.003732103854417801,-0.0028026443906128407,-1.0627329349517822,-0.0037981299683451653,0.0023311623372137547,0.002132016932591796
2024-05-13 17:12:08.732191,0.37309340048111367,0.07113473266871014,170.3878524692407,0.006133879069238901,-0.007915200665593147,-1.070617914199829,0.0008671843679621816,0.0068647232837975025,0.0004140606615692377
2024-05-13 17:12:08.750855,0.372945751001165,0.0823403316828838,170.3939586583587,0.0050244941376149654,-0.005913788452744484,-0.9910146594047546,0.0008590230136178434,0.009476330131292343,0.0025930777192115784
2024-05-13 17:12:08.760520,0.37725063780812423,0.09708484914119676,170.40817911221066,0.003185428213328123,0.002344535430893302,-1.0209206342697144,0.005723313894122839,0.010382534004747868,4.7214358346536756e-05
2024-05-13 17:12:08.793041,0.3805791544093154,0.10762565863973794,170.39460069614069,0.0051310062408447266,-0.004377549514174461,-0.991127073764801,0.0027924771420657635,0.00955896358937025,0.0008895735954865813
2024-05-13 17:12:08.810874,0.3871292257820783,0.12250400511710084,170.38690990313523,0.01034413930028677,-0.007677816785871983,-1.0111323595046997,0.006042028311640024,0.008344901725649834,0.0010696188546717167
2024-05-13 17:12:08.820662,0.39203017999625334,0.12847959354764218,170.38100861969235,0.005066286772489548,-0.007194557227194309,-0.9975427389144897,0.0033543449826538563,0.005665673408657312,0.0025265796575695276
2024-05-13 17:12:08.852952,0.39099017697341315,0.14201796229753305,170.38779782772735,0.006130071356892586,-0.004175565671175718,-1.0042434930801392,0.0012045535258948803,0.009217329323291779,0.0019284510053694248
2024-05-13 17:12:08.866065,0.38844993357155017,0.1534426409633562,170.3973327718087,0.006201744079589844,-0.002434688853099942,-1.000315546989441,-0.0006045610643923283,0.009103747084736824,0.0008758933399803936
2024-05-13 17:12:08.889133,0.3881843832871395,0.16668887238388358,170.4065535271882,0.011546943336725235,-0.002364390529692173,-0.9984912276268005,0.0012654172023758292,0.007920315489172935,-0.00022840633755549788
2024-05-13 17:12:08.918970,0.3893055481672265,0.17241522561078557,170.4085342820475,0.007879690267145634,-0.007214835844933987,-1.0021343231201172,0.0003671155427582562,0.005095325410366058,0.002076869597658515
2024-05-13 17:12:08.927891,0.38746809387836084,0.18359343049710644,170.41745450910355,0.005884786602109671,-0.0006041423184797168,-0.9968560338020325,0.0015728690195828676,0.006985566113144159,0.0006988852401264012
2024-05-13 17:12:08.949115,0.3908689411156454,0.1950303421384548,170.41158054641733,0.008241703733801842,-0.004639138467609882,-1.001145839691162,0.0016346685588359833,0.007563385181128979,-0.001475570723414421
2024-05-13 17:12:08.972881,0.3942996971109752,0.20341385239590332,170.41597918824283,0.01049729436635971,-0.0011456059291958809,-0.9984772205352783,0.004941406659781933,0.005418744869530201,0.002748094964772463
2024-05-13 17:12:08.990533,0.3995888248495038,0.2103296323739528,170.41642998072805,0.007684316020458937,-0.007761525921523571,-1.0028144121170044,0.003173431847244501,0.005865393206477165,0.0038707649800926447
2024-05-13 17:12:08.993558,0.40253847939517085,0.2202642892640818,170.42129307541708,0.00703449035063386,-0.007272097747772932,-1.0008788108825684,0.003723656991496682,0.00661708926782012,0.001139175845310092
2024-05-13 17:12:09.032825,0.4054335724687571,0.23494930270131498,170.41853367899242,0.012223289348185062,-0.0064500607550144196,-1.0008649826049805,0.0024239509366452694,0.008231518790125847,-0.0008749866392463446
2024-05-13 17:12:09.042083,0.40540166267872846,0.24365440547892267,170.4305821326883,0.007894681766629219,-0.0015691483858972788,-1.0022985935211182,0.00225608772598207,0.006776929367333651,2.2637395886704326e-06
2024-05-13 17:12:09.069117,0.4081143950375607,0.2539330397669985,170.43779481245184,0.00582447275519371,-0.0024427357129752636,-0.9988237023353577,0.003900863230228424,0.009148645214736462,0.0007657117675989866
2024-05-13 17:12:09.093134,0.4141043642179561,0.2669964969261619,170.43349179327473,0.007025367580354214,-0.006935375276952982,-1.0033209323883057,0.005205413792282343,0.009641502052545547,-0.00024324803962372243
2024-05-13 17:12:09.100729,0.41837968911241386,0.2797060382285276,170.42877896274743,0.010266558267176151,-0.005579174961894751,-1.0007197856903076,0.004213769920170307,0.008635180070996284,-0.0008967683534137905
2024-05-13 17:12:09.128769,0.4236715649348663,0.29297856320931687,170.43160666106382,0.013089311309158802,-0.004723459482192993,-1.0018705129623413,0.005386486649513245,0.009485853835940361,0.0010571697494015098
2024-05-13 17:12:09.147734,0.4274547426831129,0.306522401446629,170.43806802001865,0.009217211045324802,-0.005330693442374468,-1.000841736793518,0.0035398046020418406,0.011342610232532024,0.002780599519610405
2024-05-13 17:12:09.171098,0.43008479240039094,0.3195578975188777,170.43967994466277,0.006529010366648436,-0.00917317345738411,-0.9999937415122986,0.0024298380594700575,0.010400086641311646,0.0008104690350592136
2024-05-13 17:12:09.188967,0.42818773403884636,0.33161072680471726,170.44735707728987,0.011492849327623844,-0.0035269095096737146,-1.0009599924087524,0.0006293201586231589,0.008330446667969227,-0.0013713324442505836
2024-05-13 17:12:09.209077,0.4279945944318084,0.3437637410918591,170.4616048518985,0.011272115632891655,-0.0013877574820071459,-1.0029566287994385,0.0014711787225678563,0.01015933696180582,-0.0009158749599009752
2024-05-13 17:12:09.231044,0.4297654010154135,0.3570083583465865,170.46956885247073,0.010393930599093437,-0.0022617473732680082,-1.0039142370224,0.0035396202001720667,0.009316938929259777,-0.0008523089927621186
2024-05-13 17:12:09.248437,0.4340455283866314,0.366608162544613,170.46653624847926,0.011256215162575245,-0.006224730983376503,-1.0047435760498047,0.0039819953963160515,0.006746150087565184,-0.0003059304435737431
2024-05-13 17:12:09.272040,0.436584491128025,0.3736438710395344,170.46551172010376,0.012219198048114777,-0.004820454865694046,-1.0043001174926758,0.0031590142752975225,0.004349520429968834,-0.0007313682581298053
2024-05-13 17:12:09.291077,0.4392823891697536,0.3826676448306055,170.47195941868026,0.009825713001191616,-0.003791858209297061,-1.0039464235305786,0.003525892272591591,0.00738014280796051,0.0018638677429407835
2024-05-13 17:12:09.308963,0.442366619786411,0.39516160828729263,170.46903609771547,0.010240246541798115,-0.008621430955827236,-1.0036097764968872,0.0020001742523163557,0.009504140354692936,0.00012123853957746178
2024-05-13 17:12:09.332882,0.4448756470893329,0.40696841736087946,170.46705534285618,0.014249366708099842,-0.010057922452688217,-1.004082202911377,0.002151957480236888,0.0077119567431509495,-0.0007934755994938314
2024-05-13 17:12:09.350846,0.44380381431774335,0.41746164231885535,170.48179489108506,0.012605496682226658,-0.0027283476665616035,-1.003813624382019,0.001661085756495595,0.007887912914156914,-0.0007564580300822854
2024-05-13 17:12:09.365416,0.4435341285672336,0.42826190562436445,170.49463564672467,0.0099007124081254,-0.0010213161585852504,-1.0051896572113037,0.0027977931313216686,0.008497864939272404,-0.00036974175600335
2024-05-13 17:12:09.392856,0.4485322795749491,0.43989056949057564,170.49623391099047,0.010563655756413937,-0.005300731398165226,-1.007760763168335,0.0046284981071949005,0.009678905829787254,-0.0022661974653601646
2024-05-13 17:12:09.402750,0.454714934795133,0.45380438520140565,170.49403459007772,0.010698797181248665,-0.007241050247102976,-1.0052295923233032,0.005225116387009621,0.01101275347173214,-0.0008568676421418786
2024-05-13 17:12:09.428290,0.4589751052073697,0.4687800552043346,170.49974462822385,0.010725952684879303,-0.008777057752013206,-1.0068254470825195,0.0029923890251666307,0.011738255620002747,0.001184837776236236
2024-05-13 17:12:09.452689,0.460207954352557,0.48484140512017826,170.5069299872307,0.014703731052577496,-0.006982462015002966,-1.0046578645706177,0.001965962816029787,0.011990625411272049,-0.0010676877573132515
2024-05-13 17:12:09.461080,0.46059487389686765,0.500770847007676,170.51650591244706,0.017058828845620155,-0.0040869880467653275,-1.0027838945388794,0.0014934409409761429,0.009987021796405315,-0.000484010495711118
2024-05-13 17:12:09.489210,0.4592866258665458,0.5087280707515938,170.5274068943624,0.013261274434626102,-0.0021269728895276785,-1.00298273563385,0.0008334070444107056,0.00660300999879837,-0.00033066183095797896
2024-05-13 17:12:09.512243,0.4592692835893563,0.5157790137700154,170.53841715930446,0.012501404620707035,-0.0010120025835931301,-1.0060136318206787,0.002516219625249505,0.005554146133363247,-0.0016224865103140473
2024-05-13 17:12:09.522791,0.46351056425966974,0.5267498450417898,170.54243331053644,0.013850930146872997,-0.005099693313241005,-1.0018737316131592,0.0035051617305725813,0.007817486301064491,0.0005534294759854674
2024-05-13 17:12:09.548916,0.4671604999582482,0.5357787147943119,170.5377751215225,0.013495208695530891,-0.011813354678452015,-1.0067753791809082,0.0018226249376311898,0.006942260544747114,0.0013443836942315102
2024-05-13 17:12:09.573050,0.46534703137275696,0.543029174041692,170.54377202761376,0.014501216821372509,-0.009058218449354172,-1.0034421682357788,-0.0021798028610646725,0.005101584363728762,-0.0014471468748524785
2024-05-13 17:12:09.584633,0.46360437263905163,0.552394590693396,170.55803346260075,0.014209519140422344,-0.004797785542905331,-1.0034631490707397,0.00013730066712014377,0.006816092412918806,-0.0020836242474615574
2024-05-13 17:12:09.608982,0.46443728219182295,0.5638354243574318,170.57112010505048,0.013693916611373425,-0.0010251142084598541,-1.0077630281448364,0.002690184162929654,0.008581629022955894,-0.0007444146322086453
2024-05-13 17:12:09.630622,0.4686370481185875,0.5776405173304969,170.58085995480693,0.013048219494521618,-0.0043716225773096085,-1.004058599472046,0.004451490473002195,0.010255522094666958,-0.000861761043779552
2024-05-13 17:12:09.651122,0.4765784770500495,0.5932190048885324,170.57930267167617,0.01225249096751213,-0.01271361205726862,-1.0071117877960205,0.003770623356103897,0.01232728362083435,0.001080645015463233
2024-05-13 17:12:09.668850,0.4791073012293939,0.6090106156930135,170.58213036999254,0.018263502046465874,-0.011306317523121834,-1.0042318105697632,0.0013876669108867645,0.011667178943753242,-0.0009964806959033012
2024-05-13 17:12:09.679893,0.4766331719242625,0.6199611698406894,170.60100901285847,0.016599159687757492,-0.0003277190262451768,-1.0013840198516846,0.0014799968339502811,0.008501038886606693,-0.0008136502001434565
2024-05-13 17:12:09.711147,0.4773525295820824,0.6304519668798587,170.62376720317295,0.019879603758454323,0.0040761930868029594,-1.0074498653411865,0.004306806717067957,0.006347917020320892,0.0003784446162171662
2024-05-13 17:12:09.726291,0.48229913400590546,0.6388178280352136,170.6323186000138,0.014605605974793434,-0.005154041573405266,-1.0022813081741333,0.0052400934509932995,0.006280017085373402,0.000995335285551846
2024-05-13 17:12:09.740517,0.4878343086371132,0.6475077496501739,170.6276057694865,0.013570724055171013,-0.015351868234574795,-1.006395697593689,0.0015830129850655794,0.006978269666433334,-0.00045158035936765373
2024-05-13 17:12:09.770943,0.4869882723145308,0.6542182504271528,170.63099354331482,0.014523456804454327,-0.011897134594619274,-1.001332402229309,-0.001035620691254735,0.005671086721122265,-0.001015785033814609
2024-05-13 17:12:09.786971,0.4814710269298943,0.6622975638024845,170.65126554477143,0.014656350947916508,-0.00019111752044409513,-1.0071775913238525,0.00025766552425920963,0.0064900522120296955,-0.0018055725377053022
2024-05-13 17:12:09.818843,0.48285067178138397,0.6799981057582782,170.66619633829706,0.020893124863505363,0.0006880870787426829,-1.0046947002410889,0.004362192470580339,0.01178792305290699,-0.001202150247991085
2024-05-13 17:12:09.830854,0.49088804352634363,0.6959018277146828,170.66521279105658,0.012134953401982784,-0.012232549488544464,-1.0060293674468994,0.004246264696121216,0.014074370265007019,-0.0018539776792749763
2024-05-13 17:12:09.836398,0.4940814771284419,0.7109708258493176,170.66148350776976,0.017991354689002037,-0.015230057761073112,-1.004227638244629,0.0005527688190340996,0.010117587633430958,-0.0021874841768294573
2024-05-13 17:12:09.872467,0.49271415863397,0.719803807910878,170.68079928274256,0.016104839742183685,-0.0040037976577878,-1.0024077892303467,0.0008052138728089631,0.007708257529884577,-0.0012374960351735353
2024-05-13 17:12:09.881815,0.48849641009978134,0.7318879066565114,170.72261370084138,0.02516031078994274,0.009668780490756035,-1.0062776803970337,0.003616414265707135,0.006392640061676502,0.0005192406242713332
2024-05-13 17:12:09.908997,0.49423179465103506,0.7415393374797097,170.7308099278454,0.017379363998770714,-0.006531473249197006,-1.0038269758224487,0.004064736422151327,0.006701536476612091,0.0016562052769586444
2024-05-13 17:12:09.929013,0.4968693682485707,0.7483544788892073,170.7270260030452,0.018009597435593605,-0.015159931033849716,-1.0051301717758179,0.0006961085018701851,0.004678950645029545,-0.002934930846095085
2024-05-13 17:12:09.951107,0.49746215396333376,0.7498125108335933,170.72329671975837,0.00947102066129446,-0.014942019246518612,-1.0045207738876343,-0.000988564221188426,0.0049368953332304955,-0.001299103256314993
2024-05-13 17:12:09.968397,0.49394193849813267,0.7647855661547307,170.75341785399814,0.02040448784828186,0.0023783317301422358,-1.0088385343551636,0.003003837540745735,0.01014059316366911,-0.001954887993633747
2024-05-13 17:12:09.990712,0.4953627245672011,0.7856200977225026,170.7669143077981,0.01692546345293522,-0.004255199339240789,-1.0029313564300537,0.002216884633526206,0.015846891328692436,-0.001265968312509358
2024-05-13 17:12:09.995685,0.49708537298107236,0.8016906790658963,170.7731707610778,0.02328086644411087,-0.011262533254921436,-1.0039362907409668,0.0015310836024582386,0.010713535360991955,-0.0025627559516578913
2024-05-13 17:12:10.028753,0.49877643177003234,0.8066885632693473,170.7794135539792,0.015010473318397999,-0.008672649040818214,-1.0042625665664673,0.00030948297353461385,0.0064617423340678215,-0.0013893581926822662
2024-05-13 17:12:10.053112,0.49795248684054666,0.8202850153076098,170.79942600824734,0.024684512987732887,0.0004817107110284269,-1.0046017169952393,0.003976909909397364,0.007881291210651398,-0.00024055305402725935
2024-05-13 17:12:10.071064,0.49868310363832646,0.8321765880960136,170.8212552928347,0.018334997817873955,-0.001732259290292859,-1.004143476486206,0.0016004989156499505,0.008692016825079918,0.0010986854322254658
2024-05-13 17:12:10.089168,0.49911383244286034,0.8343825257545161,170.82523046293164,0.01923118531703949,-0.012259556911885738,-1.0039176940917969,-0.0007900294149294496,0.0014487842563539743,-0.0008629599469713867
2024-05-13 17:12:10.104760,0.49876053023587086,0.8382663420713146,170.8348746900397,0.014866680838167667,-0.009635008871555328,-1.0084670782089233,-0.0008838044013828039,0.004795555025339127,-0.0011157381813973188
2024-05-13 17:12:10.131060,0.503840430070215,0.8579742125911517,170.83909574694678,0.01841757446527481,-0.009507161565124989,-1.0037336349487305,0.0031640774104744196,0.014019028283655643,-0.0036844927817583084
2024-05-13 17:12:10.148677,0.4982450110360936,0.8795775139665203,170.8539855593374,0.022874973714351654,-0.005211480427533388,-1.0042587518692017,-0.002067222725600004,0.013922898098826408,-0.0040246667340397835
2024-05-13 17:12:10.164693,0.4990749857419559,0.8860509324741056,170.86824699432438,0.01949547417461872,-0.0030610617250204086,-1.000540018081665,0.0017277189763262868,0.006052112206816673,-0.0017895675264298916
2024-05-13 17:12:10.191008,0.5017793671273107,0.8943419817137077,170.8929312979848,0.026065440848469734,-0.0019168636063113809,-1.0076165199279785,0.006360007915645838,0.0046925232745707035,0.0014930550241842866
2024-05-13 17:12:10.209069,0.5058314302132737,0.909276510499058,170.90425575162868,0.020347870886325836,-0.006124125327914953,-1.0010418891906738,0.002081555314362049,0.010691603645682335,0.00019469228573143482
2024-05-13 17:12:10.233010,0.5050723720809032,0.9128631068652551,170.90823092172565,0.018942788243293762,-0.014459601603448391,-1.0076251029968262,-0.0011432854225859046,0.002362972591072321,-0.0006965143838897347
2024-05-13 17:12:10.243524,0.5039998189377995,0.9145227361118624,170.9220415642274,0.01662234589457512,-0.005706654395908117,-1.005615472793579,-0.0004931659204885364,0.0033186394721269608,-0.0028127047698944807
2024-05-13 17:12:10.269090,0.5071738825502985,0.9334358500887451,170.9319043573889,0.017771735787391663,-0.00559175293892622,-1.0044833421707153,0.0027630801778286695,0.014147043228149414,-0.0029260560404509306
2024-05-13 17:12:10.292892,0.5025313282662468,0.9550147655543426,170.94294194308765,0.02380913868546486,-0.008517613634467125,-1.00383460521698,-0.0011138543486595154,0.013656855560839176,-0.003601089585572481
2024-05-13 17:12:10.303029,0.5032937481323495,0.9632808952756448,170.9601676801744,0.023951943963766098,-0.003438230138272047,-1.0017966032028198,0.0016674650833010674,0.005998040549457073,-0.0014890374150127172
2024-05-13 17:12:10.314515,0.5089123257766255,0.9700957165200249,170.98508421026662,0.027222871780395508,-0.003564169630408287,-1.0055850744247437,0.005880954675376415,0.0036966113839298487,0.0020779254846274853
2024-05-13 17:12:10.353078,0.5057494145823807,0.980444520329652,171.00534255134488,0.023522881790995598,-0.004713150206953287,-1.0027639865875244,-0.0006888204952701926,0.0052994717843830585,-0.0015792589401826262
2024-05-13 17:12:10.365856,0.5063306209920664,0.9822536666860592,171.0109842875993,0.015100236982107162,-0.011921011842787266,-1.005963683128357,-0.000546044553630054,0.003512914991006255,-0.0003995334845967591
2024-05-13 17:12:10.373792,0.512934293341558,0.9900081725498451,171.0094816459819,0.014457029290497303,-0.01328213606029749,-1.0074366331100464,0.0028895223513245583,0.008263292722404003,-0.004019960295408964
2024-05-13 17:12:10.413022,0.5038292242911079,1.0114127047481956,171.0324174212148,0.025304066017270088,-0.004159421660006046,-1.0008907318115234,-0.0046769967302680016,0.01215627696365118,-0.003677467117086053
2024-05-13 17:12:10.428398,0.4990980376304047,1.0250529126858285,171.0601206684884,0.024898802861571312,-0.0016762898303568363,-1.0032806396484375,-0.0010766087798401713,0.01044506672769785,0.0005051229381933808
2024-05-13 17:12:10.449043,0.5045537045908053,1.0317877993725784,171.08178602853567,0.026966260746121407,-0.0018065361073240638,-1.004966139793396,0.006192468572407961,0.003061599563807249,-0.0009522986365482211
2024-05-13 17:12:10.472971,0.505544615628986,1.0392194720763754,171.0976320674101,0.03087739460170269,-0.006959795486181974,-1.0002566576004028,0.0008308063843287528,0.0018798073288053274,-3.777630627155304e-05
2024-05-13 17:12:10.490411,0.5021971292445923,1.0386589696776112,171.1189012764855,0.01739029586315155,-0.005786566529422998,-1.0027791261672974,-0.0005631159874610603,0.002364510903134942,0.0011801494983956218
2024-05-13 17:12:10.508859,0.508708914205406,1.0278143368229236,171.11533591773878,0.019808530807495117,-0.013198617845773697,-0.9936031699180603,0.0033377399668097496,-0.00916193425655365,-0.0039825825951993465
2024-05-13 17:12:10.530959,0.5021166077175802,1.0026693155586388,171.13655048530083,0.035765390843153,-0.0033773628529161215,-0.9910725951194763,-0.002080522244796157,-0.02757246419787407,-0.0008619936998002231
2024-05-13 17:12:10.535780,0.5056537919340005,0.9446771675238225,171.17139811044623,0.02301095612347126,-0.00146980129648,-0.9857664108276367,0.005810984876006842,-0.04674606770277023,0.007860278710722923
2024-05-13 17:12:10.568955,0.5228405222373095,0.8780455238800275,171.20317215046512,0.011144215241074562,-0.0016994720790535212,-0.9753618836402893,0.014139517210423946,-0.05443388223648071,0.0005678519373759627
2024-05-13 17:12:10.584299,0.537785189584709,0.8185865927209509,171.22183222727762,0.017495352774858475,-0.007376733236014843,-0.9693130850791931,0.01267830841243267,-0.05326865240931511,0.0014151816722005606
2024-05-13 17:12:10.611255,0.5438701410832498,0.7605198462137933,171.23838860582572,0.004691628739237785,-0.012195955961942673,-0.9755401611328125,0.005754842888563871,-0.047694746404886246,0.0041284579783678055
2024-05-13 17:12:10.628934,0.5471585036426407,0.7116043792556892,171.26550445683066,0.013027471490204334,-0.005636247340589762,-0.9748113751411438,0.004097299184650183,-0.04451252892613411,0.0013379714218899608
2024-05-13 17:12:10.647091,0.5443697587488657,0.6719521429160032,171.28502513747856,0.024199005216360092,-0.008930884301662445,-0.9801689386367798,-0.001401709858328104,-0.03915468975901604,0.0011098380200564861
2024-05-13 17:12:10.671211,0.5378938322811945,0.6387660146470567,171.29833034598175,0.02642865665256977,-0.014162750914692879,-0.9794747233390808,-0.006676628720015287,-0.03692720830440521,0.0029744443017989397
2024-05-13 17:12:10.688592,0.5292053514092623,0.5936117407658081,171.31461351696305,0.005517853423953056,-0.010530678555369377,-0.9829592108726501,-0.007878418080508709,-0.0364028736948967,-0.00012435251846909523
2024-05-13 17:12:10.709660,0.5180602969527998,0.562181931608907,171.33595102793018,0.01304155308753252,-0.006131231784820557,-0.9822924137115479,-0.007717167492955923,-0.02955193817615509,-0.0016418290324509144
2024-05-13 17:12:10.731030,0.5054505404453397,0.5328113177650587,171.36985608697012,0.009472685866057873,-0.00709169078618288,-0.9850635528564453,-0.01047047134488821,-0.026320071890950203,0.004995466209948063
2024-05-13 17:12:10.748445,0.48564795441162156,0.5024138276681814,171.4018350326641,0.0154738062992692,-0.005513021256774664,-0.9873368740081787,-0.01499196793884039,-0.028021104633808136,0.00304145785048604
2024-05-13 17:12:10.772747,0.4682652830564978,0.48177753166889864,171.4223392605525,0.017742948606610298,-0.008626461960375309,-0.9866770505905151,-0.01455212663859129,-0.022456884384155273,0.0005842872196808457
2024-05-13 17:12:10.790906,0.44851285622449694,0.4641189313434769,171.44476960178682,0.018184207379817963,-0.006133834831416607,-0.9909075498580933,-0.016749368980526924,-0.020489634945988655,0.0010519021889194846
2024-05-13 17:12:10.803186,0.42435789222474685,0.438687175536184,171.47263677360047,0.006668706890195608,-0.004047451075166464,-0.9899479746818542,-0.01922096684575081,-0.020298250019550323,0.0006675029871985316
2024-05-13 17:12:10.833184,0.4007901377306327,0.4151299064496629,171.50263496443517,0.004267245531082153,-0.00231983233243227,-0.9901617765426636,-0.018791738897562027,-0.019026633352041245,3.810430644080043e-05
2024-05-13 17:12:10.850902,0.37458955875489025,0.3990393414668616,171.51350862559383,0.010520089417696,-0.00775220338255167,-0.9928207397460938,-0.023407340049743652,-0.01662561111152172,0.00017068989109247923
2024-05-13 17:12:10.865448,0.34321348397685,0.3856295190115845,171.52651330577353,0.013764671050012112,-0.007256498094648123,-0.9915580153465271,-0.026482969522476196,-0.014952887780964375,0.0007364576449617743
2024-05-13 17:12:10.893155,0.3129072409384158,0.3735753823848491,171.53897157081963,0.012948867864906788,-0.0075780777260661125,-0.9937835931777954,-0.026486149057745934,-0.012812228873372078,0.00044185647857375443
2024-05-13 17:12:10.911043,0.2801856722547359,0.3621868690370727,171.55596508147462,0.013695279136300087,-0.0033835105132311583,-0.9932538866996765,-0.027901822701096535,-0.011937987059354782,0.0009695628541521728
2024-05-13 17:12:10.928195,0.24369733428507326,0.351867627139947,171.58536221566237,0.009140430018305779,0.0014369551790878177,-0.995465099811554,-0.029441650956869125,-0.010465252213180065,-3.3499807614134625e-05
2024-05-13 17:12:10.952255,0.20815829922854986,0.34284657475237335,171.62336538820432,0.009238804690539837,0.0034404275938868523,-0.9953547120094299,-0.028711160644888878,-0.009486908093094826,-0.0003293050976935774
2024-05-13 17:12:10.970998,0.17400872742044804,0.3352262180727547,171.6498801825623,0.011495777405798435,-0.002671058289706707,-0.9966354966163635,-0.030379101634025574,-0.008801465854048729,0.0009936871938407421
2024-05-13 17:12:10.979782,0.13866525988976916,0.3295951806693288,171.67651792032535,0.014182250015437603,-0.0021426724269986153,-0.9967281222343445,-0.030162617564201355,-0.008137070573866367,-0.00036797893699258566
2024-05-13 17:12:11.013681,0.10427968636954489,0.3221999267476297,171.70999950763675,0.009576462209224701,-0.001171626034192741,-0.9971573352813721,-0.03011324256658554,-0.007293344475328922,0.0009810328483581543
2024-05-13 17:12:11.031670,0.07073417942648591,0.31620350090403454,171.74518864224066,0.010752648115158081,0.0017260038293898106,-0.9969441294670105,-0.02819146402180195,-0.006516666151583195,0.001607546117156744
2024-05-13 17:12:11.040731,0.038561513826173045,0.3100556636403619,171.78446222996823,0.011236751452088356,0.0038330485112965107,-0.9980913400650024,-0.026726309210062027,-0.007225467823445797,0.0019142914097756147
2024-05-13 17:12:11.072083,0.008915510456899109,0.30189422791243137,171.8198426098689,0.010889734141528606,0.0024087338242679834,-0.9995198845863342,-0.0256554763764143,-0.007571469061076641,0.0022737900726497173
2024-05-13 17:12:11.090071,-0.020452818041671372,0.29618261562114045,171.84934902708335,0.012175127863883972,0.0011797173647210002,-0.9994986653327942,-0.024922562763094902,-0.00810382328927517,0.002161237411201
2024-05-13 17:12:11.103186,-0.048455192916335266,0.2850395621966613,171.88177876526257,0.010471037589013577,0.0018641012720763683,-1.0004242658615112,-0.024303127080202103,-0.010793718509376049,0.0017327518435195088
2024-05-13 17:12:11.147164,-0.1046232969116281,0.26392200466515703,171.94540880757043,0.007356621790677309,0.00511815445497632,-1.0014184713363647,-0.022487862035632133,-0.01039779931306839,0.00013480306370183825
2024-05-13 17:12:11.168986,-0.12964282012002032,0.2572857555149756,171.97872647034174,0.010905691422522068,0.005104376934468746,-0.9984148740768433,-0.020324453711509705,-0.0093302633613348,0.0018118941225111485
2024-05-13 17:12:11.192852,-0.15387783873931973,0.24866848470122607,172.00739960447746,0.010946654714643955,0.004365506581962109,-1.0003459453582764,-0.019722525030374527,-0.009266376495361328,0.000927890301682055
2024-05-13 17:12:11.228329,-0.2009783296678384,0.23427188667386722,172.07052421278672,0.009733527898788452,0.004606263712048531,-0.99919193983078,-0.019840557128190994,-0.00788768008351326,0.001272314926609397
2024-05-13 17:12:11.252952,-0.22469961667593238,0.22626775874025853,172.10300859247928,0.009011400863528252,0.0059989383444190025,-1.0001317262649536,-0.019626421853899956,-0.008427138440310955,0.0017561983549967408
2024-05-13 17:12:11.257397,-0.24919254163746588,0.2209651440461618,172.13620331184555,0.01125047542154789,0.005044004879891872,-0.9999176859855652,-0.021168416365981102,-0.00589432567358017,0.002614735160022974
2024-05-13 17:12:11.289055,-0.27492394531416664,0.21604303225381558,172.16601025738348,0.011508345603942871,0.004058308899402618,-0.9994874596595764,-0.022036829963326454,-0.007148725911974907,0.0036504913587123156
2024-05-13 17:12:11.312896,-0.3007285867614599,0.20803907774297878,172.2029069392799,0.009450266137719154,0.006144710350781679,-0.9991092681884766,-0.022239068523049355,-0.008147090673446655,0.005099225323647261
2024-05-13 17:12:11.331118,-0.32891506991881003,0.2014255603161288,172.24250837608764,0.006614383310079575,0.00774264195933938,-0.9992169141769409,-0.02352885901927948,-0.007057012990117073,0.0037262982223182917
2024-05-13 17:12:11.338660,-0.35939489581169776,0.19472494463714796,172.2843774356998,0.004239704925566912,0.010471554473042488,-0.9986807703971863,-0.024529460817575455,-0.005755776073783636,0.003821678226813674
2024-05-13 17:12:11.372481,-0.389788730690152,0.1908395541751892,172.31839177776646,0.0060327379032969475,0.009424584917724133,-0.998877227306366,-0.025693649426102638,-0.005051461048424244,0.001881949370726943
2024-05-13 17:12:11.397030,-0.4215646116584761,0.1885139681442924,172.34975600643517,0.006655627395957708,0.010075381956994534,-0.9992635250091553,-0.026717573404312134,-0.003519070101901889,0.0014230534434318542
2024-05-13 17:12:11.408966,-0.4544704887280405,0.1872066005680432,172.3825955559646,0.0077927932143211365,0.009945535100996494,-0.9999552369117737,-0.027614720165729523,-0.0027729098219424486,0.0014728043461218476
2024-05-13 17:12:11.430073,-0.48788590858185854,0.18510407624244288,172.41270302982602,0.00906300451606512,0.01036634761840105,-0.9997284412384033,-0.028309399262070656,-0.0038136497605592012,0.0022706049494445324
2024-05-13 17:12:11.451165,-0.5225748919116194,0.18222485802259158,172.43637646548927,0.005892794579267502,0.009857981465756893,-1.0001115798950195,-0.029935382306575775,-0.0028395841363817453,0.003558536758646369
2024-05-13 17:12:11.469289,-0.5579596474022226,0.18012168002654336,172.46246778811872,0.00788166280835867,0.011407573707401752,-1.0012519359588623,-0.02959587238729,-0.0031867963261902332,0.0037690310273319483
2024-05-13 17:12:11.490702,-0.593534687694234,0.17848030019162467,172.48869571453156,0.007884101942181587,0.013692468404769897,-1.0006176233291626,-0.029672829434275627,-0.003425037954002619,0.002131007146090269
2024-05-13 17:12:11.511043,-0.6298268444882439,0.1761636521035871,172.5130658294902,0.008540317416191101,0.014596142806112766,-1.0009608268737793,-0.03082568570971489,-0.0032222189474850893,0.00168807792942971
2024-05-13 17:12:11.528784,-0.665210105874966,0.17409343777441208,172.53150734024922,0.008114701136946678,0.014545484445989132,-0.9999389052391052,-0.03064654767513275,-0.0025084761437028646,0.0012866035103797913
2024-05-13 17:12:11.553033,-0.6984864139852979,0.17235263333034476,172.54156137870746,0.005840004421770573,0.01252615824341774,-1.0001477003097534,-0.030005356296896935,-0.0021601079497486353,0.0006500795134343207
2024-05-13 17:12:11.571107,-0.7324528380060655,0.17160394054364822,172.56067224800518,0.006361964158713818,0.01475895382463932,-1.0003888607025146,-0.02861092984676361,-0.0017496520886197686,0.0007745454786345363
2024-05-13 17:12:11.589322,-0.7660124388843943,0.17278592345581742,172.5839905138316,0.00799549650400877,0.016392935067415237,-1.000301718711853,-0.028632471337914467,-0.0012728230794891715,0.001239956240169704
2024-05-13 17:12:11.615719,-0.7991553982233522,0.17431408490111522,172.60633889279586,0.010272243991494179,0.01633412204682827,-1.000319242477417,-0.027783570811152458,-0.0006037497078068554,0.0028631489258259535
2024-05-13 17:12:11.648530,-0.8646859940285999,0.17448191812366978,172.65282516028697,0.007613772060722113,0.016690442338585854,-1.0005402565002441,-0.028710823506116867,-0.0016154132317751646,0.0027625560760498047
2024-05-13 17:12:11.663612,-0.8995692108628831,0.17415772426193218,172.68644335138177,0.0057592447847127914,0.018501903861761093,-0.9996303915977478,-0.028658753260970116,-0.0007445401861332357,0.0017416236223652959
2024-05-13 17:12:11.690989,-0.9344881261077502,0.17485680479565355,172.72294388230634,0.007500681560486555,0.020642360672354698,-1.0008678436279297,-0.02879842184484005,-0.0012956294231116772,0.0016582980751991272
2024-05-13 17:12:11.709131,-0.9681682157919062,0.17642366619951036,172.75710848853473,0.00917403120547533,0.018338922411203384,-1.0002174377441406,-0.029514843598008156,-0.0015228211414068937,0.0011626759078353643
2024-05-13 17:12:11.733269,-1.0029452978897897,0.17568923410074885,172.79422373648458,0.008255783468484879,0.019259925931692123,-1.0002458095550537,-0.028772344812750816,-0.0021481523290276527,0.0001968962315004319
2024-05-13 17:12:11.744364,-1.036129024920356,0.17715158827421917,172.83114773913766,0.007920103147625923,0.01905447617173195,-1.0004223585128784,-0.02832842990756035,-0.001496167154982686,-0.00028043659403920174
2024-05-13 17:12:11.769198,-1.0692098722265493,0.1783180565184104,172.87431453469216,0.007094739470630884,0.021428290754556656,-1.0012471675872803,-0.028022317215800285,-0.00041230852366425097,0.0013669778127223253
2024-05-13 17:12:11.793135,-1.101457863340824,0.1796276519102678,172.91132049961527,0.007991214282810688,0.021862847730517387,-0.9998371005058289,-0.027510182932019234,-0.0006614680169150233,0.0020875907503068447
2024-05-13 17:12:11.804272,-1.1334808850993114,0.18113232124008044,172.94829914378172,0.008226960897445679,0.02258472889661789,-1.0008677244186401,-0.026817025616765022,-0.0006643682136200368,0.0013175163185223937
2024-05-13 17:12:11.813601,-1.1643703088989883,0.18153769029927808,172.98877484480323,0.007364847231656313,0.022925565019249916,-1.0001671314239502,-0.02652258425951004,-0.0011226743226870894,0.0008385084802284837
2024-05-13 17:12:11.853140,-1.1938168552365,0.18167197288557757,173.0292505458247,0.0070173670537769794,0.022980302572250366,-1.0009194612503052,-0.025214405730366707,-0.0012813655193895102,0.0013296672841534019
2024-05-13 17:12:11.865942,-1.2218983242353612,0.18006015496316036,173.06769085047355,0.004828301258385181,0.02303147502243519,-1.0013036727905273,-0.024110794067382812,-0.0017159098060801625,0.0012225089594721794
2024-05-13 17:12:11.889208,-1.2507455214732044,0.17971727146269778,173.10253847561896,0.008163086138665676,0.022606827318668365,-1.0006486177444458,-0.0249740332365036,-0.0018428757321089506,0.003749227849766612
2024-05-13 17:12:11.913079,-1.2809835159807912,0.18014774680318046,173.13912096881356,0.00843203067779541,0.023869944736361504,-1.000707983970642,-0.026517219841480255,-0.002131036948412657,0.002967861946672201
2024-05-13 17:12:11.928308,-1.310094529275326,0.18236915910902132,173.1730943297452,0.009602163918316364,0.02458210103213787,-0.999748706817627,-0.024655191227793694,-0.0014110812917351723,0.001920259092003107
2024-05-13 17:12:11.949247,-1.3408298469318545,0.18321178033701876,173.20891184175272,0.007989762350916862,0.02611534856259823,-1.00094473361969,-0.025867275893688202,-0.0002997693372890353,0.00290527637116611
2024-05-13 17:12:11.973084,-1.372072519577668,0.18423222660727454,173.24154648560705,0.0076841190457344055,0.025929415598511696,-1.000720500946045,-0.02705027349293232,-6.324454443529248e-05,0.0030044212471693754
2024-05-13 17:12:11.990506,-1.403815076693362,0.1842246226857376,173.27521931821522,0.006705980747938156,0.027587885037064552,-1.000696063041687,-0.025441903620958328,-0.0011833127355203032,0.002314738929271698
2024-05-13 17:12:12.009209,-1.4327474378524185,0.18579372524541582,173.30386513159425,0.009265833534300327,0.028163248673081398,-1.000626802444458,-0.025467539206147194,-0.0007841826300136745,0.001773147378116846
2024-05-13 17:12:12.033030,-1.4622376333675948,0.1871507851159195,173.33260656762167,0.009093440137803555,0.02931205928325653,-1.0007023811340332,-0.023992164060473442,-0.0006409259513020515,0.0015566360671073198
2024-05-13 17:12:12.042298,-1.4903927403434452,0.18671214556494453,173.35293321059163,0.007316651288419962,0.027772730216383934,-1.0003927946090698,-0.024266425520181656,-0.0022165044210851192,7.881961937528104e-05
2024-05-13 17:12:12.069250,-1.5182618331478013,0.18586545557191417,173.3794070238146,0.00607663206756115,0.02764873392879963,-0.9997528791427612,-0.024261750280857086,-0.001895989989861846,0.0010618893429636955
2024-05-13 17:12:12.093273,-1.5453863286109202,0.18737349997567215,173.40672778049463,0.007632299326360226,0.02806183695793152,-1.000186562538147,-0.02356291376054287,-0.00029240993899293244,0.0014173646923154593
2024-05-13 17:12:12.102149,-1.5727112474374967,0.18802411551475554,173.43699917889614,0.008213653229176998,0.030551712960004807,-1.0005214214324951,-0.022526074200868607,-0.0005358370253816247,0.002526714000850916
2024-05-13 17:12:12.129087,-1.5985652209932875,0.18911714588515594,173.4658635583286,0.009073908440768719,0.03084656223654747,-1.0001095533370972,-0.02100967802107334,-0.0005457688821479678,0.0024490314535796642
2024-05-13 17:12:12.148004,-1.624202549486342,0.19020957594596127,173.4959983529467,0.007260402198880911,0.030856333673000336,-0.9997968077659607,-0.02130456268787384,-0.00034746486926451325,0.0020792181603610516
2024-05-13 17:12:12.171094,-1.6492396751060814,0.1902706474420947,173.52448024178565,0.006675068289041519,0.03044698014855385,-1.0003833770751953,-0.02140915021300316,-0.0007979556685313582,0.0016740058781579137
2024-05-13 17:12:12.187132,-1.674766973520475,0.19114633905867118,173.55595375348108,0.0066795204766094685,0.03135888651013374,-1.0004993677139282,-0.02124566026031971,-0.0002821613452397287,0.0021198736503720284
2024-05-13 17:12:12.212742,-1.6998749623528535,0.19259991537184096,173.58813760485017,0.009214567020535469,0.03229794278740883,-1.0005192756652832,-0.021654615178704262,-0.0005195139674469829,0.0007763189496472478
2024-05-13 17:12:12.230845,-1.7253907348230229,0.193957415469381,173.61746643714622,0.009342199191451073,0.03243400529026985,-1.0004361867904663,-0.021483998745679855,-0.0001708908093860373,0.0009323710692115128
2024-05-13 17:12:12.240452,-1.750650268477611,0.1946373394569146,173.64771051479104,0.009247688576579094,0.03295595571398735,-1.0001652240753174,-0.021651051938533783,-0.0010054889135062695,0.0007619134266860783
2024-05-13 17:12:12.272530,-1.7759314666384727,0.1952770827222215,173.6794025925399,0.009024076163768768,0.032594211399555206,-1.000662922859192,-0.021547531709074974,-0.0005998131819069386,0.0012642538640648127
2024-05-13 17:12:12.297167,-1.8010101070017612,0.19543819247731184,173.70925051921284,0.008651897311210632,0.035337626934051514,-1.0000485181808472,-0.020158790051937103,-0.001477787271142006,0.0013946224935352802
2024-05-13 17:12:12.303074,-1.8237074659439483,0.19653155635304279,173.73918040815585,0.007413808256387711,0.03409639000892639,-0.9990256428718567,-0.01941407285630703,-0.0011136631947010756,0.00010713038500398397
2024-05-13 17:12:12.333117,-1.8482218686487704,0.19661342524159037,173.77084516514802,0.006525970995426178,0.03368672728538513,-1.0006247758865356,-0.021040767431259155,-0.000974740250967443,0.0009584454819560051
2024-05-13 17:12:12.351098,-1.87166115688955,0.19656642767040686,173.8015536956564,0.006238935515284538,0.033597055822610855,-1.0002202987670898,-0.020709574222564697,-0.0008952284697443247,0.0015839225379750133
2024-05-13 17:12:12.365954,-1.8957339451758484,0.19494888679651712,173.8389967926864,0.006528555415570736,0.03532576560974121,-1.000030755996704,-0.01966213621199131,-0.002387175802141428,0.0018352101324126124
2024-05-13 17:12:12.392386,-1.9214075590488686,0.19480465241115347,173.87648087085145,0.007631308399140835,0.036736588925123215,-1.0003043413162231,-0.020806219428777695,-0.0015980745665729046,0.0016667101299390197
2024-05-13 17:12:12.411081,-1.9436577540438313,0.19430875666502676,173.9105908355665,0.007595921400934458,0.035196833312511444,-0.9991773366928101,-0.019755978137254715,-0.0020548554603010416,0.002049183938652277
2024-05-13 17:12:12.428297,-1.9651124454438993,0.19478629627775906,173.94560238525196,0.0077943080104887486,0.03563760221004486,-0.9999680519104004,-0.017849670723080635,-0.001636197790503502,0.001529279863461852
2024-05-13 17:12:12.452369,-1.9863895519255468,0.19529209046209703,173.98051831228906,0.00815089512616396,0.037358351051807404,-1.0004009008407593,-0.017886124551296234,-0.0012284612748771906,0.002324100350961089
2024-05-13 17:12:12.471006,-2.0069872680281895,0.19555549297217886,174.0142457864106,0.008961834013462067,0.0376410149037838,-1.0000513792037964,-0.017109951004385948,-0.0012547844089567661,0.0020313793793320656
2024-05-13 17:12:12.480865,-2.0268895854959603,0.19490104879190057,174.0482464680989,0.008584242314100266,0.03748193383216858,-1.0003314018249512,-0.016705648973584175,-0.002062722807750106,0.0020007502753287554
2024-05-13 17:12:12.519093,-2.0474397037178247,0.19506696102375107,174.0808674515749,0.00786377303302288,0.038021985441446304,-0.9995739459991455,-0.017486361786723137,-0.0024179574102163315,0.0022432878613471985
2024-05-13 17:12:12.531084,-2.0664141826755316,0.19466141854178154,174.11459492569642,0.0068892668932676315,0.03854869678616524,-0.9998059868812561,-0.015850279480218887,-0.0007019865442998707,0.0016802630852907896
2024-05-13 17:12:12.541426,-2.086474448267859,0.1952877815732261,174.14681975820054,0.007168773096054792,0.04021521285176277,-1.000156283378601,-0.0160471610724926,-0.0014061951078474522,0.0012782015837728977
2024-05-13 17:12:12.572908,-2.105876454378927,0.19717316724820086,174.17688625092694,0.009174554608762264,0.0383831262588501,-1.0006028413772583,-0.015905404463410378,-0.00017731210391502827,0.001661725458689034
2024-05-13 17:12:12.590803,-2.122744246864508,0.19751038115804379,174.20917938532276,0.009193383157253265,0.03846871107816696,-1.00062096118927,-0.01436364371329546,-0.0012552377302199602,0.0025250124745070934
2024-05-13 17:12:12.602712,-2.1399119273433347,0.198207473999995,174.24188233106878,0.00904617365449667,0.03930934518575668,-0.9998469948768616,-0.013991178944706917,-0.0011700668837875128,0.0028783073648810387
2024-05-13 17:12:12.632784,-2.1573728790696496,0.1991355926545366,174.28052754139273,0.008155419491231441,0.040914975106716156,-1.0006103515625,-0.013817200437188148,0.0003108819655608386,0.002062514191493392
2024-05-13 17:12:12.668781,-2.1890034851159785,0.197636139348094,174.35270898054142,0.007884993217885494,0.03998786211013794,-1.0012309551239014,-0.011917078867554665,-0.0015425573801621795,0.0010421728948131204
2024-05-13 17:12:12.709534,-2.217410882204296,0.19788729554243742,174.42349706109943,0.00891320314258337,0.04040234908461571,-0.9999533891677856,-0.01195321325212717,-0.001096491003409028,0.0015920862788334489
2024-05-13 17:12:12.729001,-2.2317329351201667,0.19759146297401123,174.46216959218003,0.00702239153906703,0.04146387428045273,-1.0000032186508179,-0.011777726002037525,-0.0015387242892757058,0.0019197287037968636
2024-05-13 17:12:12.746224,-2.245410602376529,0.19863253321390928,174.49972197223676,0.008285350166261196,0.04103806987404823,-0.9991761445999146,-0.011202309280633926,-0.0018193013966083527,0.001764232642017305
2024-05-13 17:12:12.771116,-2.2591593462889414,0.19909377108608348,174.53732899380685,0.0070883287116885185,0.04154765605926514,-1.000368595123291,-0.010707641020417213,-0.0015045348554849625,0.002764330478385091
2024-05-13 17:12:12.788722,-2.273622912186678,0.2005593669313669,174.5687478639889,0.009484467096626759,0.042432237416505814,-0.9992095828056335,-0.011719063855707645,-0.0007497362093999982,0.0015277158236131072
2024-05-13 17:12:12.803211,-2.2869594968713627,0.20319029710271763,174.60065850779122,0.009173570200800896,0.041960615664720535,-1.0003738403320312,-0.011462455615401268,-6.0926948208361864e-05,0.002553418977186084
2024-05-13 17:12:12.830940,-2.3007255297001117,0.20341058404366377,174.63349805732062,0.007059438619762659,0.041959699243307114,-0.9993153810501099,-0.011314632371068,-0.0009207689436152577,0.002453658962622285
2024-05-13 17:12:12.846148,-2.314827522458661,0.20394628698604697,174.66991662597513,0.0071020894683897495,0.043571725487709045,-1.0001763105392456,-0.011647637002170086,-0.0009332375484518707,0.0031780556309968233
2024-05-13 17:12:12.873050,-2.326710557510602,0.20547598255586538,174.70409489258188,0.00831802561879158,0.04305732250213623,-1.0002676248550415,-0.009850483387708664,-0.0004944682586938143,0.0021625603549182415
2024-05-13 17:12:12.890958,-2.339487493570169,0.2070105739839365,174.7337925550931,0.009226002730429173,0.04339393973350525,-0.9997453689575195,-0.010285953991115093,-0.0006297604413703084,0.0016445127548649907
2024-05-13 17:12:12.898830,-2.3505534672426474,0.20827149093774433,174.76339459495594,0.010719772428274155,0.04384724795818329,-0.9997507929801941,-0.008862084709107876,-0.0011131479404866695,0.001344618620350957
2024-05-13 17:12:12.933151,-2.3607562757587655,0.20929984795444115,174.7970674275641,0.007734773214906454,0.04436676204204559,-0.9997674226760864,-0.008885806426405907,0.0003649882273748517,0.00037443856126628816
2024-05-13 17:12:12.943533,-2.370306374322324,0.20961059488125028,174.83015286390363,0.00858101062476635,0.0443403497338295,-1.0011529922485352,-0.007242962718009949,-0.0011906862491741776,0.0015624650986865163
2024-05-13 17:12:12.969120,-2.37947504950942,0.20692330230903372,174.86351150781,0.007778978906571865,0.0436880961060524,-0.9991089701652527,-0.007815688848495483,-0.0023618158884346485,0.0019386556232348084
2024-05-13 17:12:12.991620,-2.3883752128847697,0.20637521964877986,174.89128305697525,0.008030006662011147,0.04343417286872864,-1.0004308223724365,-0.007196116726845503,-0.002194113563746214,0.0014510329347103834
2024-05-13 17:12:13.011203,-2.3991084282786215,0.20752623992605923,174.92005181375936,0.008398536592721939,0.044863857328891754,-0.9995312690734863,-0.008235657587647438,-0.0010039396584033966,-3.4763030271278694e-05
2024-05-13 17:12:13.028937,-2.4092472037712707,0.20739733344568848,174.9476457780062,0.0072556366212666035,0.04399183765053749,-0.999938428401947,-0.00801672600209713,-0.0020879674702882767,0.0010336001869291067
2024-05-13 17:12:13.044879,-2.418550988637886,0.20632229902292548,174.97728879900404,0.006278554908931255,0.045199986547231674,-0.999564528465271,-0.006917858030647039,-0.00198214128613472,0.001775947050191462
2024-05-13 17:12:13.071165,-2.425909450251517,0.20640842343949112,175.0018364988811,0.007758655119687319,0.04359247162938118,-0.9999914765357971,-0.006856539286673069,-0.0014070606557652354,0.0020752069540321827
2024-05-13 17:12:13.089293,-2.4331991830866246,0.2083449421517484,175.02985393485648,0.009290998801589012,0.04519445821642876,-0.9997705221176147,-0.0065423790365457535,-0.0006315758801065385,0.0013227029703557491
2024-05-13 17:12:13.103963,-2.4403617036484406,0.20726273069427162,175.05630042732275,0.008099141530692577,0.045578356832265854,-0.9995200634002686,-0.005861524026840925,-0.001616509398445487,0.0020865609403699636
2024-05-13 17:12:13.131421,-2.4454198856156584,0.20742003848859347,175.0814628442251,0.006475595757365227,0.04602205753326416,-0.9995368719100952,-0.004170356784015894,-0.0006501933676190674,0.002544523449614644
2024-05-13 17:12:13.148805,-2.4501252456235623,0.209224475749733,175.10295061935395,0.008241291157901287,0.045153167098760605,-0.9992446303367615,-0.004196209367364645,-0.0009292114991694689,0.0012134332209825516
2024-05-13 17:12:13.164881,-2.451662251630227,0.2124395605178917,175.12764858339273,0.008872976526618004,0.046215035021305084,-0.9995324611663818,-0.0006654583849012852,0.0009776062797755003,0.0018034022068604827
2024-05-13 17:12:13.197028,-2.453656453424459,0.21457494178865952,175.1532754531586,0.010802669450640678,0.04646929353475571,-1.0002003908157349,-0.0009048078791238368,-0.00025536082102917135,0.001594829373061657
2024-05-13 17:12:13.209129,-2.454923666958908,0.21598674989422909,175.1732059451567,0.009969763457775116,0.04534067213535309,-0.9989018440246582,0.0004975100164301693,-0.0008667557267472148,0.0012188447872176766
2024-05-13 17:12:13.232584,-2.455349913451799,0.21593102782359794,175.19107372002546,0.007128470111638308,0.0440443716943264,-1.0009007453918457,0.00012045451148878783,-0.0005617685383185744,0.0015190616250038147
2024-05-13 17:12:13.251039,-2.4567863876116176,0.21497285366866564,175.21175553283226,0.006261793896555901,0.045728132128715515,-0.9993584752082825,0.00010364985791966319,-0.0006164145888760686,0.002240521367639303
2024-05-13 17:12:13.260711,-2.4586403570844526,0.2170140396938681,175.2329017985026,0.007853603921830654,0.046065960079431534,-0.9998623132705688,-0.0005613047978840768,0.0002637389115989208,0.002676089759916067
2024-05-13 17:12:13.292952,-2.4601483347871445,0.21827986584614184,175.2510837620732,0.00928513240069151,0.04583454504609108,-0.9999590516090393,0.00021720939548686147,-0.0001269620843231678,0.0013640164397656918
2024-05-13 17:12:13.311077,-2.460787811248187,0.21856378560416018,175.26527689516848,0.009564674459397793,0.04422970488667488,-0.9997894763946533,0.0006874820101074874,-0.0015382268466055393,0.0010683778673410416
2024-05-13 17:12:13.321413,-2.4614716839388344,0.21853493072295951,175.28564451927346,0.00832231342792511,0.04535185173153877,-0.9997371435165405,0.0005420396337285638,-0.0016490397974848747,0.0009284524130634964
2024-05-13 17:12:13.353138,-2.461956840813317,0.2181987840301744,175.30844369072295,0.006115106400102377,0.04607019200921059,-0.9996991753578186,0.0001633047650102526,-0.0006042157765477896,0.001840024022385478
2024-05-13 17:12:13.366649,-2.463196733591086,0.2179107154658438,175.33222640941295,0.007306590210646391,0.04618937894701958,-0.9999063611030579,-6.140092864370672e-06,-0.0009871565271168947,0.002072826726362109
2024-05-13 17:12:13.389256,-2.4622588632406788,0.21899107263368264,175.3519656561143,0.009378330782055855,0.04479881748557091,-0.9999427199363708,0.0005977163673378527,-0.0009229491697624326,0.00203916453756392
2024-05-13 17:12:13.419129,-2.4634695142710634,0.21917370015270116,175.37270211043443,0.009300602599978447,0.04458917677402496,-0.9998094439506531,-0.0009078853181563318,-0.0002565624890848994,0.0010754731483757496
2024-05-13 17:12:13.428091,-2.463078059054257,0.2191245014463359,175.39218180994732,0.008736991323530674,0.04554136097431183,-1.0002163648605347,0.0009264430264011025,-0.001558119198307395,0.0011014373740181327
2024-05-13 17:12:13.449152,-2.463599501308705,0.21863975811846334,175.41427064172314,0.007290828041732311,0.04608901962637901,-0.9995614886283875,0.0001385084178764373,-0.0014503909042105079,0.003520783968269825
2024-05-13 17:12:13.473089,-2.4645488976033367,0.21889891844074036,175.43551253004188,0.00715314457193017,0.04542607441544533,-0.9997598528862,-6.188226689118892e-05,-0.0008924814173951745,0.0025178759824484587
2024-05-13 17:12:13.490853,-2.4641124058266906,0.21925738331024702,175.45571622960676,0.008769841864705086,0.04466842859983444,-0.9997742176055908,0.00030441838316619396,-0.0015029640635475516,0.0020691249519586563
2024-05-13 17:12:13.509193,-2.462913494183942,0.21993454587364356,175.4745948724727,0.00942465290427208,0.044905953109264374,-1.0000025033950806,0.0007276854012161493,-0.0013789674267172813,0.0013322652084752917
2024-05-13 17:12:13.533015,-2.463165357409586,0.2207673620449223,175.49400627009385,0.008904808200895786,0.04586748406291008,-0.9998997449874878,0.0014266098150983453,-0.00045471516204997897,0.002170819090679288
2024-05-13 17:12:13.542565,-2.462912000080061,0.219876342523353,175.51124566755897,0.007446133065968752,0.04570978879928589,-0.9997437596321106,0.0009861239232122898,-0.0015219975030049682,0.0007855503354221582
2024-05-13 17:12:13.569219,-2.4627623762485555,0.2192164155154402,175.5312581218271,0.007583694998174906,0.04459012299776077,-1.0003314018249512,0.0007958492496982217,-0.0018899121787399054,0.0012727444991469383
2024-05-13 17:12:13.593312,-2.4630996168388246,0.21939862948784877,175.55113397231185,0.008285827934741974,0.04504144564270973,-0.9997300505638123,0.0009141383343376219,-0.0020499250385910273,0.0020768125541508198
2024-05-13 17:12:13.602963,-2.4628938573900783,0.21973968537909985,175.5727173700891,0.009306262247264385,0.04538899287581444,-0.9998175501823425,0.0008895149221643806,-0.0012237046612426639,0.0011209582444280386
2024-05-13 17:12:13.615595,-2.4634520119113152,0.22033256447535546,175.59700552277766,0.009440644644200802,0.045507315546274185,-1.0000540018081665,0.0009051769156940281,-0.0010169477900490165,0.0009987016674131155
2024-05-13 17:12:13.653004,-2.4631269375955047,0.2197220095965798,175.61962710930874,0.007314720656722784,0.044884439557790756,-0.999330461025238,0.00040328572504222393,-0.0012825923040509224,0.001796418335288763
2024-05-13 17:12:13.663051,-2.4632707984548983,0.2190630297438058,175.64086899762748,0.007660720031708479,0.04485243186354637,-1.0001955032348633,0.0005946041783317924,-0.0014925169525668025,0.0020358143374323845
2024-05-13 17:12:13.689429,-2.4634949140370392,0.2195007488200684,175.66373647096867,0.008154576644301414,0.045680638402700424,-0.999347984790802,0.0009707941208034754,-0.0014418618520721793,0.002575282473117113
2024-05-13 17:12:13.709774,-2.4632110342996607,0.21949860104573957,175.6836806233451,0.009149803780019283,0.04549109563231468,-0.9999934434890747,0.0007453596917912364,-0.0023964003194123507,0.0017101475968956947
2024-05-13 17:12:13.731253,-2.463040066126999,0.2200232182709347,175.70403458707176,0.008893678896129131,0.04548925533890724,-0.9990426898002625,0.000804697978310287,-0.001977612730115652,0.0010584748815745115
2024-05-13 17:12:13.748927,-2.4630016463129176,0.21962346544150385,175.72535843766053,0.0076608480885624886,0.04479045793414116,-1.0002132654190063,0.00016137657803483307,-0.0019717931281775236,0.0016351885860785842
2024-05-13 17:12:13.772208,-2.463115198207869,0.2195336191054491,175.74645006181754,0.007868845015764236,0.04525415599346161,-0.9993823766708374,0.00043258327059447765,-0.0018772061448544264,0.0021470733918249607
2024-05-13 17:12:13.791207,-2.462520971750078,0.21928827924407077,175.7641129310112,0.008289807476103306,0.045607779175043106,-0.9998058676719666,0.0009978384478017688,-0.0015462185256183147,0.0014477854128926992
2024-05-13 17:12:13.808767,-2.462266120316672,0.21999360299758036,175.78532749857325,0.009517507627606392,0.04526997357606888,-0.9996257424354553,0.0009713388280943036,-0.0008680318715050817,0.0019330960931256413
2024-05-13 17:12:13.824782,-2.463115625094692,0.22012815238814432,175.80734802845737,0.008786526508629322,0.04500473290681839,-1.0000940561294556,0.0005269399844110012,-0.0007639577379450202,0.0008958920952863991
2024-05-13 17:12:13.851380,-2.4626080566619954,0.22010115179658163,175.83208697363116,0.007741760928183794,0.04511267691850662,-0.9996775388717651,0.0009058915311470628,-0.001026561832986772,0.0014161220751702785
2024-05-13 17:12:13.868508,-2.463864384582455,0.2191376682367867,175.85612923950958,0.007529105991125107,0.04581230506300926,-0.9999351501464844,0.00027965818298980594,-0.002060593105852604,0.0007026931270956993
2024-05-13 17:12:13.884542,-2.4638391982598904,0.21939542783667534,175.87918795814755,0.008201348595321178,0.04585703834891319,-0.9999893307685852,0.0009169817785732448,-0.001115166349336505,0.0016422944609075785
2024-05-13 17:12:13.897103,-2.4634605496477775,0.21967205049806085,175.90025226154788,0.008854296989738941,0.04515506327152252,-0.9996029734611511,0.0013739857822656631,-0.0013899259502068162,0.00044017384061589837
2024-05-13 17:12:13.928808,-2.4631881958546233,0.21991250784139968,175.92045596111276,0.008374755270779133,0.04529249668121338,-1.0001237392425537,0.0010869730031117797,-0.0014432978350669146,-9.337149822385982e-05
2024-05-13 17:12:13.944348,-2.462411475279946,0.21980506576410422,175.94283166083375,0.008155121468007565,0.045193497091531754,-0.9998999834060669,0.0019360133446753025,-0.0012035021791234612,5.737825995311141e-05
2024-05-13 17:12:13.971164,-2.4623566203231744,0.21839856706339728,175.96492049260956,0.00760628329589963,0.04565617814660072,-0.9997825622558594,0.0019432258559390903,-0.0013961789663881063,0.0004873480647802353
2024-05-13 17:12:13.989223,-2.4616035919671804,0.21821915453576543,175.98347128639531,0.007583854719996452,0.045403338968753815,-1.0001503229141235,0.0014978700783103704,-0.0015313902404159307,0.0009289412409998477
2024-05-13 17:12:14.012510,-2.459498826485759,0.21768985489572912,176.002541174558,0.008917133323848248,0.045125920325517654,-0.9995620846748352,0.0027495953254401684,-0.002410323591902852,0.0011087505845353007
2024-05-13 17:12:14.030857,-2.4577806070226775,0.21659102153257687,176.023632798715,0.007594156078994274,0.045200951397418976,-1.000341773033142,0.0025871393736451864,-0.002180196577683091,0.0007045363308861852
2024-05-13 17:12:14.042537,-2.456728544447084,0.21555498055306377,176.0424841208242,0.007887906394898891,0.0455629825592041,-0.9996019601821899,0.0024883991573005915,-0.0018880192656069994,0.0004097894416190684
2024-05-13 17:12:14.072993,-2.455482888697203,0.21406391824073825,176.0620048014721,0.006810379214584827,0.045787133276462555,-1.0000382661819458,0.0024968027137219906,-0.0027844703290611506,-0.0002794744214043021
2024-05-13 17:12:14.097028,-2.4538743791476647,0.2131845714057388,176.08137521795828,0.00767049565911293,0.04519942030310631,-0.9998859763145447,0.001719111343845725,-0.0028836741112172604,0.000644181331153959
2024-05-13 17:12:14.101565,-2.4516424013929514,0.21110532575221203,176.10187944584666,0.007676559034734964,0.045861393213272095,-0.999925434589386,0.002860907930880785,-0.003700841683894396,-0.0009068346116691828
2024-05-13 17:12:14.133082,-2.449055467244809,0.2094224578541708,176.1215503906563,0.007926244288682938,0.04566040262579918,-0.9994408488273621,0.002623144071549177,-0.002605183282867074,-0.0010595398489385843
2024-05-13 17:12:14.148317,-2.445984016552419,0.20682738617596264,176.14101642979082,0.007604219950735569,0.045894231647253036,-0.9999336004257202,0.0037965693045407534,-0.003872344736009836,-0.000991938984952867
2024-05-13 17:12:14.169224,-2.4421102320759642,0.20429658764506134,176.15956722357657,0.007441875524818897,0.045224130153656006,-0.9998034238815308,0.0040004742331802845,-0.0037168681155890226,-0.001387089490890503
2024-05-13 17:12:14.193105,-2.4390767743108324,0.20285547109104154,176.1768476021767,0.00824263971298933,0.044709235429763794,-0.999908447265625,0.0037092091515660286,-0.003058007685467601,-0.0007425243384204805
2024-05-13 17:12:14.209338,-2.435966263474126,0.20020366348599733,176.19285756559123,0.008420733734965324,0.046272993087768555,-0.9987558126449585,0.004144338890910149,-0.003744085319340229,-0.0015172784915193915
2024-05-13 17:12:14.229309,-2.429566803108647,0.2014256270171949,176.21127175559357,0.009799649938941002,0.047561194747686386,-0.9984477758407593,0.007082129828631878,-0.0019476491725072265,-0.0028195325285196304
2024-05-13 17:12:14.253125,-2.421355848509234,0.2021197049709578,176.23153009667183,0.009497012943029404,0.048204828053712845,-0.9990789294242859,0.008769501931965351,-0.0009708390571177006,-0.004518517758697271
2024-05-13 17:12:14.262869,-2.4100486837816897,0.201954553131261,176.24616036187402,0.007511474657803774,0.04438074678182602,-0.9978569746017456,0.010281696915626526,-0.0008882860420271754,-0.0038847399409860373
2024-05-13 17:12:14.289237,-2.3957089150626594,0.20228945918421642,176.25111907921143,0.006287099327892065,0.04247642681002617,-1.0003132820129395,0.012616317719221115,0.0004175649373792112,-0.0030027776956558228
2024-05-13 17:12:14.319039,-2.378663110771835,0.20411429363137343,176.25887817410856,0.005263402592390776,0.04201704263687134,-0.9991613030433655,0.014713851734995842,0.000929356727283448,-0.0015843285946175456
