sTimestamp,sRoll,sPitch,sYaw,sAcc_x,sAcc_y,sAcc_z,sGyro_x,sGyro_y,sGyro_z
2024-05-13 17:28:22.585578,0.34142840336509656,0.05308366994038375,170.76550728882904,0.0059597990475595,-0.0040581016801297665,-1.0006273984909058,0.0011287496890872717,-0.0020330327097326517,0.0003884485340677202
2024-05-13 17:28:22.618009,0.3410446854719593,0.052855839108860186,170.76971468535777,0.0058420319110155106,-0.00392769742757082,-1.0012006759643555,-5.9818936279043555e-05,-0.0015865927562117577,0.0010305088944733143
2024-05-13 17:28:22.635281,0.34143160501626996,0.052022385942400044,170.77231015724237,0.005774334538727999,-0.004054727964103222,-1.0004856586456299,0.0008427007123827934,-0.001728675328195095,0.0008296598098240793
2024-05-13 17:28:22.660155,0.3410190189017189,0.05133265689814776,170.77065725146323,0.005901577416807413,-0.004366366658359766,-1.001010537147522,0.00029500058735720813,-0.0019548910204321146,-8.511374471709132e-05
2024-05-13 17:28:22.666629,0.3403595588012689,0.05121637692959226,170.77373083658975,0.006057702004909515,-0.004218345042318106,-1.0007225275039673,-0.0003561006742529571,-0.0021930327638983727,0.0004869505646638572
2024-05-13 17:28:22.696156,0.33992370735485744,0.05135894045324975,170.77493294988366,0.006024245172739029,-0.00406479649245739,-1.0006040334701538,-0.0004538306384347379,-0.001223431434482336,0.00119263946544379
2024-05-13 17:28:22.711174,0.3398897164915661,0.0514932497199757,170.77623068582596,0.005672166123986244,-0.004026587586849928,-1.001245141029358,8.859700756147504e-06,-0.0018808450549840927,0.0011949476320296526
2024-05-13 17:28:22.738147,0.33991994541472864,0.05133500477567495,170.77849830863042,0.005557103082537651,-0.004113476257771254,-1.0006351470947266,-0.00034097765455953777,-0.0013168614823371172,0.0007500388310290873
2024-05-13 17:28:22.756161,0.3397542866469294,0.051773564285370596,170.77986434646442,0.005629234481602907,-0.004083814099431038,-1.001063346862793,0.0006037476123310626,-0.0019208575831726193,0.0005489193717949092
2024-05-13 17:28:22.772845,0.3391725466287147,0.05131040208743902,170.77733717647152,0.005409063771367073,-0.004391185939311981,-1.0006319284439087,0.0009119273163378239,-0.0016253739595413208,0.000707231811247766
2024-05-13 17:28:22.798159,0.3388533953675753,0.051857484231701174,170.77650389339277,0.005203091073781252,-0.0038573550991714,-1.0005691051483154,0.00045380849041976035,-0.0010824553901329637,0.0005275988951325417
2024-05-13 17:28:22.816206,0.3390180135987432,0.052196389013570085,170.7754930253956,0.0051750061102211475,-0.004379912279546261,-1.0011026859283447,0.0005897306255064905,-0.0009729272569529712,0.00112251378595829
2024-05-13 17:28:22.835658,0.33983390103944233,0.05192591285542692,170.7767497802029,0.005452790297567844,-0.004120342433452606,-1.0008033514022827,0.0011179880239069462,-0.0020519508980214596,0.001723614288493991
2024-05-13 17:28:22.858032,0.3402409909861457,0.051707553575291464,170.77881249733224,0.005228091962635517,-0.004091269336640835,-1.0008673667907715,0.0008445309358648956,-0.0019732387736439705,0.001991900382563472
2024-05-13 17:28:22.875305,0.34010267965545293,0.05158183874093422,170.7784846482521,0.005474640056490898,-0.004346013534814119,-1.0010170936584473,0.0003341503906995058,-0.0013972737360745668,0.00028746476164087653
2024-05-13 17:28:22.898025,0.33984030434178925,0.0511437061180617,170.78045174273305,0.005305517464876175,-0.004038855899125338,-1.0008786916732788,0.00022882557823322713,-0.002285946626216173,0.0006256051128730178
2024-05-13 17:28:22.918065,0.3407577641659659,0.05168027950935769,170.78304721461765,0.0056305271573364735,-0.004128756932914257,-1.000854253768921,0.0013687782920897007,-0.0008906934526748955,0.0003894145484082401
2024-05-13 17:28:22.936088,0.3404431485773222,0.05110633684577167,170.78554706385387,0.00573435053229332,-0.004008840303868055,-1.0006511211395264,0.0006821192218922079,-0.0010045371018350124,0.000810973288025707
2024-05-13 17:28:22.952245,0.34072521404570255,0.05130121068052859,170.78915340373564,0.005513918120414019,-0.004060253966599703,-1.0010221004486084,0.0005861035897396505,-0.0001455078599974513,0.0019016290316358209
2024-05-13 17:28:22.978015,0.3411844375456801,0.05129987332415302,170.79334713988604,0.005593669135123491,-0.004047914873808622,-1.0007706880569458,0.000577658589463681,-0.0010231875348836184,0.0011553778313100338
2024-05-13 17:28:22.995540,0.3402465405148463,0.051520820605653675,170.79523227209694,0.005662722513079643,-0.004094368312507868,-1.0010473728179932,-0.00020667073840741068,-0.001631772262044251,0.001716325175948441
2024-05-13 17:28:23.011497,0.34073850089807234,0.051358743685104714,170.7949727249085,0.005743325222283602,-0.004203932825475931,-1.000903606414795,0.0009754703496582806,-0.001769045484252274,0.0011947600869461894
2024-05-13 17:28:23.022931,0.34034982044561635,0.051368055153934146,170.79595627214897,0.005662555806338787,-0.004037493374198675,-1.0007258653640747,0.0010892872232943773,-0.0020360895432531834,0.0019259117543697357
2024-05-13 17:28:23.055962,0.340617345081584,0.05149780206773794,170.79724034771294,0.0057596988044679165,-0.00403989665210247,-1.0008559226989746,0.0013714886736124754,-0.0016604751581326127,0.0018136927392333746
2024-05-13 17:28:23.085941,0.34148720702498214,0.05181399513659524,170.79928940446393,0.00580575130879879,-0.004060589708387852,-1.0009969472885132,0.000529588432982564,-0.0013729736674576998,0.00169591442681849
2024-05-13 17:28:23.098164,0.34155356124555175,0.05203939137920566,170.7988659327354,0.005599098280072212,-0.0039501977153122425,-1.0008236169815063,0.00014092566561885178,-0.001562987919896841,0.0005275827716104686
2024-05-13 17:28:23.115218,0.3410106145673886,0.05212602605892705,170.79838781949348,0.005463690496981144,-0.004131902940571308,-1.0010030269622803,0.00014841978554613888,-0.0014659598236903548,0.0012707635760307312
2024-05-13 17:28:23.140190,0.3407617662299327,0.052161617747805165,170.79472683809837,0.0053584943525493145,-0.004141657613217831,-1.0007472038269043,0.00034202044480480254,-0.0022168986033648252,0.0007075857138261199
2024-05-13 17:28:23.150315,0.34005481497040996,0.05246671175926119,170.79673491371435,0.0053737470880150795,-0.00430004158988595,-1.0010011196136475,0.0006728137377649546,-0.001352075720205903,-6.22937805019319e-05
2024-05-13 17:28:23.160605,0.340147556132734,0.05313931863984216,170.79871566857366,0.005571961402893066,-0.0038860817439854145,-1.000824213027954,0.0005645779892802238,-0.001208741799928248,-0.000249232049100101
2024-05-13 17:28:23.200162,0.34000436228400177,0.05310651505552759,170.80066910267627,0.0053866347298026085,-0.0040063983760774136,-1.0008951425552368,0.00018829572945833206,-0.001942196860909462,0.00040442514000460505
2024-05-13 17:28:23.210454,0.3406036313423911,0.05262331585733555,170.80181657445684,0.005546589381992817,-0.004203760996460915,-1.0007086992263794,0.0009552965639159083,-0.002152865519747138,0.0006831728387624025
2024-05-13 17:28:23.220580,0.34040865078592836,0.05345549836848623,170.80222638580705,0.005582582671195269,-0.004011485259979963,-1.0006780624389648,0.001135807717218995,-0.0009203669033013284,0.0003883131721522659
2024-05-13 17:28:23.260143,0.3401142322801038,0.05367460470056216,170.80458963125986,0.005486147943884134,-0.004119254648685455,-1.000472903251648,0.0002805575495585799,-0.0017223147442564368,0.0008007982978597283
2024-05-13 17:28:23.272972,0.33986826542870396,0.05328666796499329,170.80603763136392,0.005639373790472746,-0.004009655211120844,-1.0006914138793945,0.0006276674685068429,-0.0023148953914642334,0.0010377452708780766
2024-05-13 17:28:23.301268,0.3398412648371413,0.054102808869743696,170.80270449904896,0.005583006888628006,-0.004213694948703051,-1.0007176399230957,0.0005758660845458508,-0.0013559249928221107,0.00013766635674983263
2024-05-13 17:28:23.320164,0.3393217969342501,0.05398471796724322,170.80325091418254,0.00586590263992548,-0.0039344411343336105,-1.0004355907440186,0.000242900219745934,-0.0017899549566209316,0.0015925372717902064
2024-05-13 17:28:23.335302,0.3389959488860729,0.05357625731363125,170.80263619715726,0.005886259488761425,-0.003969299606978893,-1.0009914636611938,0.0008289825054816902,-0.0015178921166807413,0.0010726971086114645
2024-05-13 17:28:23.356149,0.33972349743481145,0.05383941636482178,170.80158434802507,0.005577704403549433,-0.004383680410683155,-1.000420093536377,0.0007458747131749988,-0.0013153459876775742,0.0008172208908945322
2024-05-13 17:28:23.380138,0.3403488065894114,0.05417587988767093,170.80244495186048,0.005734598264098167,-0.003974490333348513,-1.0011696815490723,0.001033912063576281,-0.0005080847186036408,0.001048582955263555
2024-05-13 17:28:23.398197,0.3404249792069129,0.05456631791321906,170.80577808417544,0.005564098712056875,-0.004165862686932087,-1.00059175491333,0.0007663523429073393,-0.0008815720211714506,0.0013547622365877032
2024-05-13 17:28:23.416031,0.34005468156827773,0.0554370603106899,170.80887899005864,0.005725554656237364,-0.004070510156452656,-1.0004894733428955,-0.0004363744519650936,-0.0007977075292728841,0.0009179882472380996
2024-05-13 17:28:23.440069,0.34079655750601745,0.054682377768256386,170.80963031086733,0.00549812288954854,-0.00421786867082119,-1.0013761520385742,0.0007149052107706666,-0.0018572392873466015,0.0023683332838118076
2024-05-13 17:28:23.449762,0.34049872390560787,0.05508652619794412,170.80864676362685,0.005588354077190161,-0.004174841567873955,-1.0007116794586182,0.0009434326784685254,-0.0015875791432335973,0.0017910433234646916
2024-05-13 17:28:23.476119,0.34103492043588035,0.0554474690120569,170.80718510314446,0.0055211205035448074,-0.004091330338269472,-1.0014723539352417,0.0009282244136556983,-0.0017930951435118914,0.0014997407561168075
2024-05-13 17:28:23.499506,0.34171001526622735,0.054550969997906366,170.80566880114873,0.00542388716712594,-0.0042200335301458836,-1.0005390644073486,0.0007945421384647489,-0.0018435081001371145,0.0011078263632953167
2024-05-13 17:28:23.507916,0.3417886158025354,0.053645136169553256,170.8030323481291,0.005534624680876732,-0.004082993604242802,-1.0015215873718262,0.0004582243855111301,-0.001653271378017962,5.345583485905081e-05
2024-05-13 17:28:23.536166,0.341651585132312,0.05374723215639974,170.79573770609554,0.005257291719317436,-0.004106902051717043,-1.0011690855026245,0.0008858772343955934,-0.001668437384068966,0.0011279504979029298
2024-05-13 17:28:23.559408,0.34261690964153163,0.054258022250589594,170.78862064898038,0.005525514017790556,-0.0038906941190361977,-1.001381754875183,0.0019589511211961508,-0.0013666432350873947,0.00037379044806584716
2024-05-13 17:28:23.578167,0.3419058229159099,0.053908438628035925,170.7860661582308,0.005245109088718891,-0.00384134310297668,-1.0011053085327148,0.0007466798415407538,-0.001673375372774899,0.0018646527314558625
2024-05-13 17:28:23.589835,0.34244922316132254,0.05366616701569882,170.78355264861622,0.005435430910438299,-0.004003921523690224,-1.0008924007415771,0.0007383327465504408,-0.0017865649424493313,0.001680575660429895
2024-05-13 17:28:23.619415,0.3419875984229649,0.053628664341276555,170.782377856079,0.005538932513445616,-0.0038482637610286474,-1.0011670589447021,-0.0003095196734648198,-0.0019232205813750625,0.0005598526913672686
2024-05-13 17:28:23.638051,0.3376346601679776,0.05297354981528382,170.78903046033057,-0.0033876015804708004,-0.0020008364226669073,-1.056577205657959,-0.004274054430425167,0.002176053822040558,0.0017634860705584288
2024-05-13 17:28:23.648192,0.33579363070196827,0.07116280047733066,170.77893544073729,0.006402435712516308,-0.007654431276023388,-1.0807636976242065,-0.0007126752752810717,0.00864768959581852,-0.00044325966155156493
2024-05-13 17:28:23.679498,0.3342910691258448,0.07889506153556772,170.7868857809312,0.00633952347561717,-0.004959168843924999,-0.9861099123954773,2.2652180632576346e-05,0.006163191515952349,0.0013513374142348766
2024-05-13 17:28:23.698047,0.33871372333513383,0.0925024325383529,170.81225310350862,0.0069947740994393826,0.004216869827359915,-1.022524118423462,0.0059789977967739105,0.009000163525342941,0.000624119711574167
2024-05-13 17:28:23.710610,0.3415437695290463,0.09972429703869018,170.81921989646204,0.0027462923899292946,-0.005134382285177708,-0.9928160309791565,0.0005233309930190444,0.007798125501722097,0.0017605553148314357
2024-05-13 17:28:23.739287,0.3432370427934012,0.11778972050655077,170.82905536886685,0.0045378063805401325,-0.005051874555647373,-1.0128016471862793,0.0030232069548219442,0.012284303084015846,0.0007994867628440261
2024-05-13 17:28:23.757253,0.3491488383243117,0.1267913228632458,170.8209137833762,0.0043760682456195354,-0.005225755274295807,-0.997272253036499,0.003469607559964061,0.008366605266928673,9.347587911179289e-05
2024-05-13 17:28:23.772926,0.3499143798003085,0.14006003254305335,170.81697959441428,0.009783588349819183,-0.004002776928246021,-1.0030966997146606,0.002776317996904254,0.009642432443797588,-0.001162351225502789
2024-05-13 17:28:23.799477,0.34952489893505906,0.1537573099128528,170.79943966862567,0.008520189672708511,-0.005699546076357365,-1.00154709815979,0.00014125948655419052,0.00898802187293768,0.0014686576323583722
2024-05-13 17:28:23.818170,0.3501493543160128,0.16768055715443123,170.79092925291985,0.010438960045576096,-0.006157407537102699,-1.0001444816589355,0.0010476232273504138,0.00941930990666151,-0.0008471279288642108
2024-05-13 17:28:23.835477,0.35025890414699745,0.17208456174563497,170.797363291118,0.011310837231576443,-0.0033826609142124653,-1.0019898414611816,-0.0005410686135292053,0.0036698898766189814,-0.0006212441367097199
2024-05-13 17:28:23.859613,0.34589521368015264,0.17811240379136956,170.82479333082478,0.0076117143034935,0.0032848045229911804,-0.9972168207168579,0.0005963976727798581,0.0040642148815095425,0.001325041288509965
2024-05-13 17:28:23.878078,0.34784139070678316,0.18654324512533216,170.83580359576683,0.0020407892297953367,-0.004750504624098539,-1.0019145011901855,0.0010580414673313498,0.007713982369750738,0.0005241483449935913
2024-05-13 17:28:23.888090,0.35088941598475426,0.1989779113342445,170.83990170926884,0.004855588544160128,-0.004914872348308563,-1.0006086826324463,0.0032852445729076862,0.00969588104635477,0.0007998412474989891
2024-05-13 17:28:23.919901,0.356532006012831,0.2093005283053155,170.8364046524138,0.009593348950147629,-0.006211161147803068,-1.0014166831970215,0.004125211853533983,0.007129596546292305,0.0019257250241935253
2024-05-13 17:28:23.937863,0.3572012044689336,0.21739107414018072,170.83721061473585,0.011581091210246086,-0.002275537932291627,-1.00116765499115,0.0019412417896091938,0.0048291487619280815,0.0010900511406362057
2024-05-13 17:28:23.948997,0.3630296770280552,0.22988706530927772,170.82283989672214,0.011462969705462456,-0.009269893169403076,-1.0002073049545288,0.0032888080459088087,0.008183841593563557,0.0005320913624018431
2024-05-13 17:28:23.986169,0.365009658154992,0.237834257212852,170.82001219840575,0.0061470759101212025,-0.005963252857327461,-1.0026618242263794,0.002487086458131671,0.00550761166960001,0.000383211940061301
2024-05-13 17:28:23.997312,0.3669351845315538,0.24492119212654848,170.83807121857126,0.0075898366048932076,-0.00022168149007484317,-0.9982984662055969,0.003938779234886169,0.006038058083504438,1.6151665477082133e-05
2024-05-13 17:28:24.009514,0.36893672344305845,0.25605533428859484,170.85655371046533,0.010344075039029121,-0.0012410031631588936,-1.0037450790405273,0.0029197903349995613,0.007714452221989632,0.0004904379602521658
2024-05-13 17:28:24.040124,0.37245408410262987,0.2688737317308576,170.86212714482807,0.006151542533189058,-0.005918803624808788,-1.0009359121322632,0.0022561554796993732,0.010723461396992207,0.0008892967598512769
2024-05-13 17:28:24.055151,0.3783878909853578,0.28077792436097004,170.85614389911512,0.006254121661186218,-0.01018733810633421,-1.0023633241653442,0.0051231374964118,0.009629393927752972,0.0004329704970587045
2024-05-13 17:28:24.076061,0.382001567984397,0.29198279633352303,170.85867106910803,0.009131846018135548,-0.0038605239242315292,-1.0008928775787354,0.004483678378164768,0.008543168194591999,7.094844477251172e-06
2024-05-13 17:28:24.100174,0.3803128303925378,0.30583908904493684,170.85644442743862,0.011683447286486626,-0.003508602036163211,-0.9999195337295532,4.653185897041112e-06,0.010113474912941456,-0.00023918772058095783
2024-05-13 17:28:24.116774,0.38208155590288023,0.31974914281563804,170.84909514389167,0.012753407470881939,-0.006638003047555685,-1.000577688217163,0.0006191820139065385,0.01001384574919939,-0.00029535050271078944
2024-05-13 17:28:24.135775,0.3845471741519755,0.3296727673494319,170.8503382383206,0.012397234328091145,-0.005822221748530865,-1.0030899047851562,0.0015105365309864283,0.00663258321583271,-0.00020808607223443687
2024-05-13 17:28:24.160163,0.3827815969319536,0.3351885719910403,170.8752137872778,0.01054432988166809,0.0010259679984301329,-1.0036224126815796,0.0016253734938800335,0.004690059460699558,0.001125587266869843
2024-05-13 17:28:24.169463,0.38276163997297247,0.3457520731922733,170.9000210343433,0.008645272813737392,0.0003736491780728102,-1.0056281089782715,0.002346557332202792,0.008209005929529667,-4.970135341864079e-05
2024-05-13 17:28:24.201468,0.3865412692245018,0.35554480355392615,170.90448797806047,0.008882665075361729,-0.006388455629348755,-1.0041571855545044,0.001959175569936633,0.008444215171039104,0.00013210985343903303
2024-05-13 17:28:24.219325,0.3914610598197473,0.3621243034370583,170.89776707191717,0.009472113102674484,-0.009184768423438072,-1.0039455890655518,0.003544757841154933,0.005493316799402237,-0.0006632203003391623
2024-05-13 17:28:24.229883,0.3935971748022424,0.3729319572206928,170.8946934867907,0.013130937702953815,-0.0047554736956954,-1.0055062770843506,0.002297300612553954,0.0071419114246964455,-0.0011682629119604826
2024-05-13 17:28:24.241811,0.393742849930634,0.3873561428089961,170.8891746939413,0.013177158311009407,-0.006891485303640366,-1.005712628364563,2.2501713829115033e-05,0.009245917201042175,-0.0004510846920311451
2024-05-13 17:28:24.279837,0.39540122519719845,0.39782668940449345,170.8916608827992,0.013389145955443382,-0.005439773667603731,-1.0065714120864868,0.0021236359607428312,0.005966475699096918,4.6893765102140605e-06
2024-05-13 17:28:24.289766,0.3972556482372833,0.40238666776869675,170.90734299713353,0.00992853194475174,-0.002230755053460598,-1.004250168800354,0.003032535780221224,0.004534442909061909,0.0005291380221024156
2024-05-13 17:28:24.316154,0.398390153330593,0.4164793757388429,170.92394035681667,0.008381802588701248,-0.003201290499418974,-1.0061686038970947,0.0020258345175534487,0.010707475244998932,0.0011121053248643875
2024-05-13 17:28:24.336412,0.4024739928044524,0.4314527512250976,170.92697296080814,0.007004681508988142,-0.007464163936674595,-1.0060293674468994,0.004076008684933186,0.011947143822908401,-0.0015296407509595156
2024-05-13 17:28:24.357325,0.4112624452342754,0.44376904972208503,170.9172604318084,0.01114010438323021,-0.00908326543867588,-1.0033345222473145,0.005533256568014622,0.00975120346993208,-0.0021772081963717937
2024-05-13 17:28:24.375529,0.41251479777119426,0.4593532735718063,170.91489718635557,0.016842396929860115,-0.007313653826713562,-1.0050753355026245,0.0016250725602731109,0.009829194284975529,-0.0009623027872294188
2024-05-13 17:28:24.399474,0.4111064181004229,0.47450247306833593,170.92303877184622,0.018285756930708885,-0.0034358184784650803,-1.005145788192749,5.1464419811964035e-05,0.009044439531862736,-0.0010119260987266898
2024-05-13 17:28:24.417971,0.4116441354150028,0.48046197320173073,170.94023718817633,0.013578166253864765,-0.0019127969862893224,-1.0028939247131348,0.0016880208859220147,0.0057544223964214325,0.00012764701386913657
2024-05-13 17:28:24.435301,0.410771898913651,0.48806237292236815,170.96212111427704,0.012274275533854961,-0.0012654426973313093,-1.0056920051574707,0.0009532271651551127,0.006290344055742025,0.0009327619336545467
2024-05-13 17:28:24.460177,0.41167252338874066,0.4949284205855235,170.96840488831344,0.006701491307467222,-0.005017034709453583,-1.0057376623153687,0.0018524304032325745,0.0062624081037938595,-0.0008481988916173577
2024-05-13 17:28:24.464650,0.41746945968380383,0.5039540353260193,170.95785907623494,0.0114060053601861,-0.010118120349943638,-1.003141164779663,0.0024779317900538445,0.006762675009667873,-0.001695112558081746
2024-05-13 17:28:24.496241,0.41687048411010547,0.514096546078371,170.9514523587935,0.01892343908548355,-0.009514090605080128,-1.0075217485427856,-0.0016969776479527354,0.004752106033265591,-0.0006085208151489496
2024-05-13 17:28:24.511631,0.4147197215734919,0.5231786166012251,170.96826828453004,0.01637200638651848,-0.003538898192346096,-1.0043562650680542,0.0005126337055116892,0.004867556504905224,0.0009670628351159394
2024-05-13 17:28:24.522997,0.4145000883029937,0.5338626866495647,170.9872971915577,0.012659045867621899,-0.0012890379875898361,-1.0039443969726562,0.002410341054201126,0.008389076218008995,-0.00035522296093404293
2024-05-13 17:28:24.556022,0.4198004218206294,0.5455390551182602,170.98934624830872,0.008078709244728088,-0.006450294516980648,-1.0092928409576416,0.004757131915539503,0.010742463171482086,-0.002064777771010995
2024-05-13 17:28:24.570507,0.4264752241870243,0.5597504376252352,170.9853164366984,0.010143140330910683,-0.009643792174756527,-1.0013693571090698,0.005000977776944637,0.011927072890102863,-0.0012063919566571712
2024-05-13 17:28:24.598178,0.4285783621624329,0.5746560448283188,170.9846060970247,0.018229292705655098,-0.00815329235047102,-1.0074503421783447,0.0014678590232506394,0.009378630667924881,-0.0010977409547194839
2024-05-13 17:28:24.615235,0.4267513399203074,0.5878386834524136,171.00267877756858,0.021986309438943863,-0.0025310730561614037,-1.0032079219818115,0.0007112210732884705,0.007742549292743206,-5.7241530157625675e-05
2024-05-13 17:28:24.639672,0.4249140990748533,0.5983788926413598,171.03200760986462,0.018737968057394028,0.0017951726913452148,-1.0029871463775635,0.0020978888496756554,0.006407454144209623,0.0018543688347563148
2024-05-13 17:28:24.657868,0.4281521690303947,0.6015256888580316,171.04006723308524,0.007811464369297028,-0.004692744463682175,-1.00846266746521,0.002611069241538644,0.004360230639576912,-0.0027043460868299007
2024-05-13 17:28:24.668256,0.4326561718599156,0.6078328349480094,171.02810074165936,0.01076290663331747,-0.012325147166848183,-1.0004419088363647,0.0017990772612392902,0.0055717467330396175,-0.0012504644691944122
2024-05-13 17:28:24.699249,0.4308542558990752,0.6154277385007991,171.03706194985043,0.014510346576571465,-0.007598221767693758,-1.0092830657958984,-0.001593521679751575,0.0054026320576667786,0.00036230403929948807
2024-05-13 17:28:24.717288,0.42858908769386395,0.6261031107301175,171.05650066822827,0.018760448321700096,-0.004155134316533804,-0.9987612366676331,-0.0005385878030210733,0.00726169440895319,0.00015924160834401846
2024-05-13 17:28:24.728722,0.4297555826184816,0.6447842117186313,171.07470995255554,0.018314937129616737,-0.0014824580866843462,-1.0113180875778198,0.0030787279829382896,0.012715090066194534,-0.0026688803918659687
2024-05-13 17:28:24.760321,0.43787990587322667,0.6582655643972084,171.0698605182448,0.01170625351369381,-0.010083338245749474,-1.0013656616210938,0.003985662013292313,0.011399278417229652,-0.004075891338288784
2024-05-13 17:28:24.773900,0.43794834116705905,0.6688699666921821,171.06707380106346,0.014917198568582535,-0.009334840811789036,-1.0088833570480347,0.0006453008973039687,0.008159182965755463,-0.00018114037811756134
2024-05-13 17:28:24.796054,0.4383922767826834,0.6787284376245963,171.0869496515482,0.01808445155620575,-0.003755263052880764,-0.9998068809509277,0.0024233253207057714,0.007166640367358923,0.0035248163621872663
2024-05-13 17:28:24.820200,0.4344128111370783,0.6928067915253149,171.1201307105361,0.021337369456887245,0.0033196392469108105,-1.0064748525619507,0.0018132147379219532,0.009158426895737648,0.0011354030575603247
2024-05-13 17:28:24.835417,0.4407527474711575,0.7021312804028517,171.1215240691268,0.019534090533852577,-0.0068844156339764595,-1.0027791261672974,0.004675428383052349,0.005660054739564657,-0.0028861009050160646
2024-05-13 17:28:24.855999,0.4415723434911326,0.706592888034751,171.11532225736042,0.017504680901765823,-0.01187567412853241,-1.0075993537902832,-0.0007886049570515752,0.0019150442676618695,-0.0009878305718302727
2024-05-13 17:28:24.886238,0.44042716622724476,0.707972372803682,171.12778052240654,0.009461394511163235,-0.011064380407333374,-1.0029737949371338,-0.0009154927683994174,0.0042161219753324986,0.0007346866186708212
2024-05-13 17:28:24.897957,0.43722431443461124,0.7228848635567884,171.14717825964937,0.012758323922753334,-0.002365752123296261,-1.008404016494751,-0.00012765158317051828,0.011693834327161312,-0.0017444745171815157
2024-05-13 17:28:24.916084,0.43912115935274426,0.7424369737470374,171.15638535465055,0.01813352108001709,-0.004289472475647926,-1.0033067464828491,0.0019780362490564585,0.013605525717139244,-0.004515098407864571
2024-05-13 17:28:24.940195,0.4404607835645659,0.758782043317701,171.15492369416816,0.024282271042466164,-0.008718031458556652,-1.008580207824707,-0.00027912453515455127,0.009152557700872421,-0.001496911165304482
2024-05-13 17:28:24.948890,0.4414273086929756,0.7628265291625536,171.17556452583995,0.02011898159980774,-0.005906751845031977,-0.9996106624603271,0.001276536495424807,0.004080797545611858,0.0015405903104692698
2024-05-13 17:28:24.961400,0.4407332707598524,0.7723960510765645,171.19948384831332,0.015231302939355373,-0.0012836983660236,-1.0074715614318848,0.001683597220107913,0.007279262412339449,9.21081518754363e-05
2024-05-13 17:28:25.000228,0.44209362566302207,0.7817793436139869,171.21302128324828,0.019628316164016724,-0.003571342211216688,-1.0018267631530762,0.0018843214493244886,0.007476144004613161,-0.0029832180589437485
2024-05-13 17:28:25.010265,0.4410953508271424,0.7853747978817639,171.2207393970104,0.01644701324403286,-0.009201321750879288,-1.0074162483215332,-0.0014626836637035012,0.001912260428071022,-0.000783510971814394
2024-05-13 17:28:25.022894,0.4421225472452889,0.7912821644618845,171.23065683168525,0.019135866314172745,-0.011342484503984451,-1.0041779279708862,-0.00040125977830030024,0.004746946971863508,-0.0006294464110396802
2024-05-13 17:28:25.059902,0.44377131755833293,0.8084463764852736,171.24131192679047,0.011389682069420815,-0.004661289043724537,-1.0055755376815796,0.0021560005843639374,0.013366064988076687,-0.0058970339596271515
2024-05-13 17:28:25.069225,0.44423915883605236,0.8293250374783862,171.24254136084107,0.027252644300460815,-0.0070001063868403435,-1.0040342807769775,0.0010003790957853198,0.012299050576984882,-0.003673700150102377
2024-05-13 17:28:25.102114,0.4424195804329051,0.8320726411545825,171.27106423081506,0.016294166445732117,-0.0016166933346539736,-1.002629041671753,0.0017391241854056716,0.003657049033790827,0.0013269975315779448
2024-05-13 17:28:25.117401,0.4428995079438042,0.8394530340787514,171.2932623456176,0.02165701985359192,-0.0017560976557433605,-1.002894639968872,0.003368732985109091,0.004125908017158508,0.001750710653141141
2024-05-13 17:28:25.138426,0.4454379103962425,0.8501764310756714,171.30069359143457,0.021034304052591324,-0.006022396497428417,-1.0056102275848389,0.0018454925157129765,0.007905948907136917,-0.0021329817827790976
2024-05-13 17:28:25.155920,0.44527257179356056,0.8566726346674411,171.30348030861595,0.020541265606880188,-0.01326183695346117,-1.0038392543792725,-0.0017108037136495113,0.002846862655133009,-0.001445280620828271
2024-05-13 17:28:25.179313,0.44375763049956646,0.8594068447695619,171.3208016683511,0.016180694103240967,-0.0074161021038889885,-1.006460428237915,-0.00039919657865539193,0.0045031048357486725,-0.001571710454300046
2024-05-13 17:28:25.198046,0.4435838608821278,0.8731104454004289,171.3392021979751,0.013348069041967392,-0.00036237575113773346,-1.0040819644927979,0.0012837264221161604,0.011653630994260311,-0.005311383865773678
2024-05-13 17:28:25.215328,0.44417016325326464,0.8969952967628462,171.34302710391032,0.02549835480749607,-0.009080056101083755,-1.006001353263855,0.000320073333568871,0.01328221708536148,-0.0019039022736251354
2024-05-13 17:28:25.231228,0.44381758141778915,0.9021836792111171,171.36608582254829,0.02244574949145317,-0.002674378454685211,-1.0001909732818604,0.00120013568084687,0.004394307732582092,-5.748921103077009e-05
2024-05-13 17:28:25.243071,0.4474094071475696,0.904669227738767,171.39038763561518,0.02174050733447075,-0.0022605187259614468,-1.0060174465179443,0.004101633559912443,0.0018345231655985117,-0.001312824198976159
2024-05-13 17:28:25.275812,0.4454439134921927,0.9158694573171186,171.4021628817443,0.025735408067703247,-0.006714752875268459,-1.0042310953140259,0.00012131744006182998,0.00356673845089972,0.0006251173326745629
2024-05-13 17:28:25.291140,0.44683014840901436,0.9190500843145231,171.40134325904387,0.014413970522582531,-0.014568163082003593,-1.0051413774490356,-0.001164234010502696,0.0054070670157670975,-0.00045806486741639674
2024-05-13 17:28:25.304445,0.4467639009101505,0.9235897055133486,171.421997751094,0.010645905509591103,-0.0008152092341333628,-1.0027586221694946,0.0010731860529631376,0.006548709701746702,-0.004744542296975851
2024-05-13 17:28:25.335614,0.4342984588293335,0.9369113491592238,171.47323783024743,0.03308100253343582,0.011207119561731815,-0.9953513741493225,-0.0010934253223240376,0.0030356813222169876,0.004915264435112476
2024-05-13 17:28:25.350912,0.42607229638684646,0.9256581856148046,171.5442444768589,0.027883892878890038,0.015969211235642433,-0.9939360618591309,-0.0004609650932252407,-0.011158876121044159,0.015561864711344242
2024-05-13 17:28:25.378189,0.4274194978397786,0.8914564935936418,171.649265465537,0.02267395704984665,0.022917216643691063,-0.9812154173851013,0.009499875828623772,-0.027789799496531487,0.03435983136296272
2024-05-13 17:28:25.395244,0.4384500665863641,0.8655031087689156,171.72693837677838,0.024024970829486847,-0.010847458615899086,-0.9827128648757935,0.007289204280823469,-0.025531498715281487,0.0605565644800663
2024-05-13 17:28:25.420203,0.453358875440621,0.8391202758001248,171.80502109936998,0.0071247052401304245,-0.026630336418747902,-0.9827033877372742,0.0025061285123229027,-0.019359851256012917,0.08180387318134308
2024-05-13 17:28:25.432153,0.4530669915753087,0.8130231368377111,171.94904246820886,0.00031402072636410594,-0.010955017060041428,-0.9870166778564453,-0.00048359582433477044,-0.01810142956674099,0.10445939749479294
2024-05-13 17:28:25.456098,0.46010763594912246,0.7998916179106855,172.11172391386023,0.024513913318514824,-0.006187039893120527,-0.9834591746330261,0.004606867674738169,-0.015436981804668903,0.1268453150987625
2024-05-13 17:28:25.480212,0.45881208780178856,0.797245720020099,172.31322815475394,0.032095376402139664,-7.26309372112155e-05,-0.9844197034835815,0.0011209518415853381,-0.010272764600813389,0.14934732019901276
2024-05-13 17:28:25.491652,0.46600566437998714,0.7791703714336007,172.5101698292821,0.017923085018992424,-0.01743363030254841,-0.9960265159606934,6.224430399015546e-05,-0.013553222641348839,0.16534820199012756
2024-05-13 17:28:25.516005,0.4795766099305678,0.7593066872233226,172.71312207027984,0.0125302504748106,-0.020061586052179337,-0.984657883644104,0.0031631647143512964,-0.015507985837757587,0.17859485745429993
2024-05-13 17:28:25.540105,0.47636215215243055,0.747131821666922,172.97719084397087,0.013615120202302933,-0.001326639438048005,-0.9933381676673889,-0.0014751553535461426,-0.009268932975828648,0.19550801813602448
2024-05-13 17:28:25.554093,0.4768743096184757,0.7398490257426902,173.25836241134363,0.00851321779191494,-0.0036453655920922756,-0.9894348978996277,-0.00055793731007725,-0.004202578216791153,0.21234242618083954
2024-05-13 17:28:25.575993,0.486160005155961,0.7362616823245526,173.52476710973082,0.021245820447802544,-0.014406869187951088,-0.9934303760528564,0.0013432392152026296,-0.004104484338313341,0.22260339558124542
2024-05-13 17:28:25.600193,0.49669423792938333,0.7318503406160763,173.78509293975668,0.02214878425002098,-0.0259043350815773,-0.9947878122329712,2.239839523099363e-05,-0.0049654049798846245,0.23145145177841187
2024-05-13 17:28:25.616814,0.5064338742424099,0.726501982330839,174.0464979396714,0.02385578490793705,-0.026433002203702927,-0.9920241236686707,-0.0008642158936709166,-0.00701158307492733,0.23667053878307343
2024-05-13 17:28:25.636195,0.5036718631359332,0.7026913559147928,174.3249920728895,0.017610404640436172,-0.015621324069797993,-0.9949577450752258,-0.004872900899499655,-0.019389579072594643,0.2355264276266098
2024-05-13 17:28:25.660168,0.4951979996143274,0.6626731174851294,174.6435520957789,0.01933670975267887,0.0050133271142840385,-0.998019814491272,-0.005060587543994188,-0.03180183842778206,0.23865896463394165
2024-05-13 17:28:25.669720,0.49305593489673505,0.6185909164993084,174.94936698567705,0.011908304877579212,-0.0057126739993691444,-0.98515385389328,-0.0038464448880404234,-0.035560138523578644,0.2437867373228073
2024-05-13 17:28:25.695985,0.4909128563229378,0.5742632022293372,175.22328489215124,0.007465458940714598,-0.018024761229753494,-0.9911928772926331,-0.007767959963530302,-0.0358753576874733,0.2393331527709961
2024-05-13 17:28:25.719350,0.4864939373733511,0.5271631782082813,175.48899291124306,0.009210300631821156,-0.02570243552327156,-0.9835617542266846,-0.011042285710573196,-0.037758633494377136,0.23921018838882446
2024-05-13 17:28:25.729375,0.47353103874146024,0.49326430902727336,175.77904372453685,0.010429234243929386,-0.00891911517828703,-0.9820331335067749,-0.012056248262524605,-0.029284659773111343,0.2335452139377594
2024-05-13 17:28:25.756171,0.4537999562506157,0.46125889635023987,176.0914838979299,0.00405884301289916,0.006634396035224199,-0.9882416129112244,-0.012272784486413002,-0.025723489001393318,0.2250252366065979
2024-05-13 17:28:25.774219,0.43971071673590745,0.4370124985290615,176.37933539031093,0.021665066480636597,0.0031149769201874733,-0.9891100525856018,-0.009687828831374645,-0.02419215254485607,0.2197636365890503
2024-05-13 17:28:25.798050,0.431039658182444,0.4097967026466465,176.65242001370638,0.014703810214996338,-0.0027202540077269077,-0.989010751247406,-0.010120373219251633,-0.024249738082289696,0.21566402912139893
2024-05-13 17:28:25.815040,0.42361041339745353,0.38738669189727604,176.92269059916376,0.012765039689838886,-0.008938402868807316,-0.9906032681465149,-0.007849189452826977,-0.020260917022824287,0.2138894498348236
2024-05-13 17:28:25.835621,0.41510997617110823,0.3675796502323415,177.17760691936698,0.008974484167993069,-0.010086734779179096,-0.9901818037033081,-0.008908451534807682,-0.016724344342947006,0.2068079113960266
2024-05-13 17:28:25.858194,0.4103045378836076,0.3493623617771539,177.4417030138147,0.01317441463470459,-0.005441238172352314,-0.9918259382247925,-0.006732610985636711,-0.016810011118650436,0.20756970345973969
2024-05-13 17:28:25.872530,0.39991139120522823,0.3284503235705583,177.71485593910185,0.007476192899048328,0.0004098149365745485,-0.994540810585022,-0.0057943412102758884,-0.016332611441612244,0.20503422617912292
2024-05-13 17:28:25.899832,0.39149243600124706,0.31779226693800294,177.97509980685768,0.010892366990447044,-0.00016195327043533325,-0.9953283071517944,-0.006739925593137741,-0.010129370726644993,0.19970718026161194
2024-05-13 17:28:25.917242,0.38287625908498174,0.30608070698682605,178.2100173331711,0.009701156057417393,-0.0035952958278357983,-0.994023323059082,-0.007252980954945087,-0.011211490258574486,0.1890292912721634
2024-05-13 17:28:25.929289,0.38078640796194296,0.2938402876226492,178.43893795339324,0.01254346501082182,-0.005627772770822048,-0.9930329322814941,-0.0038990797474980354,-0.012532712891697884,0.18615376949310303
2024-05-13 17:28:25.959242,0.37408713964449763,0.2801268152339974,178.67717495164328,0.00868652667850256,-0.002943925093859434,-0.9950237274169922,-0.005220599938184023,-0.011585917323827744,0.1843971163034439
2024-05-13 17:28:25.978061,0.3701390501803922,0.2716300332260751,178.90638243981059,0.0069537037052214146,-0.003765901317819953,-0.998881995677948,-0.004223473835736513,-0.007371010258793831,0.17738157510757446
2024-05-13 17:28:26.019352,0.36582111664490125,0.26494471877166065,179.12851385199772,0.01175957266241312,-0.003585162805393338,-0.9990785717964172,-0.003975551109761,-0.006999928038567305,0.17473112046718597
2024-05-13 17:28:26.037342,0.3535211465688983,0.24931046912235438,179.5866556207655,0.012500466778874397,-0.002526831580325961,-0.9963396191596985,-0.0038020419888198376,-0.010368485935032368,0.17110157012939453
2024-05-13 17:28:26.055816,0.34975813922304444,0.23952243451575586,179.81329495780486,0.011609699577093124,-0.003436577972024679,-0.9970205426216125,-0.0026539915706962347,-0.010395272634923458,0.17066258192062378
2024-05-13 17:28:26.073916,0.34680120092095784,0.22603131680109975,-179.98141323403556,0.005591998342424631,-0.012929286807775497,-1.0006663799285889,-0.0061431871727108955,-0.011138545349240303,0.17145471274852753
2024-05-13 17:28:26.085687,0.34115957138823305,0.2140560608551501,-179.7701281622504,0.003903571981936693,-0.00638393172994256,-0.9998852014541626,-0.005757168401032686,-0.008862215094268322,0.16771511733531952
2024-05-13 17:28:26.116195,0.330232309252844,0.20815693852680114,-179.55148014653994,0.004123978316783905,0.005030748900026083,-1.0002621412277222,-0.004915522411465645,-0.004970243200659752,0.15914249420166016
2024-05-13 17:28:26.131154,0.3258833730618235,0.208511041146584,-179.34208020696568,0.011701912619173527,0.0010464366059750319,-0.9972926378250122,-0.0027762525714933872,-0.0023466881830245256,0.15776608884334564
2024-05-13 17:28:26.158107,0.3269579272369105,0.20682687924786017,-179.14451015503388,0.01167252752929926,-0.006063252687454224,-0.9988240003585815,-0.0013741175644099712,-0.0035341226030141115,0.15583927929401398
2024-05-13 17:28:26.176070,0.3265195678304132,0.19750152325646392,-178.955532481078,0.005551508627831936,-0.009064897894859314,-1.000014066696167,-0.0014367615804076195,-0.006479145027697086,0.15050680935382843
2024-05-13 17:28:26.199304,0.32642466555354704,0.19471894154119776,-178.76689631658058,0.006994973868131638,-0.0058103580959141254,-0.9994520545005798,-0.000974077673163265,-0.0038880796637386084,0.14684925973415375
2024-05-13 17:28:26.217324,0.3211271601611146,0.19175383902861887,-178.56927162313542,0.007041859440505505,0.00037026521749794483,-0.999583899974823,-0.002610356081277132,-0.0035268536303192377,0.1459045261144638
2024-05-13 17:28:26.228947,0.3152399639833867,0.18798665619602625,-178.37232994860727,0.01087702251970768,0.00047347048530355096,-0.9980091452598572,-0.0023058177903294563,-0.005246174521744251,0.14468111097812653
2024-05-13 17:28:26.259700,0.31610545033684784,0.18577855742298163,-178.1746642740271,0.012678848579525948,-0.004955686628818512,-1.0010395050048828,-0.000450154795544222,-0.0021714314352720976,0.14796414971351624
2024-05-13 17:28:26.277851,0.31904021720455833,0.18742229847564074,-177.99724328014685,0.010570433922111988,-0.012413322925567627,-1.0015289783477783,-0.001250941539183259,-0.001371721737086773,0.1471279114484787
2024-05-13 17:28:26.290680,0.318985202165228,0.18309023765434693,-177.81396198395873,0.004125766921788454,-0.006518025882542133,-1.00223970413208,-0.0009792770724743605,-0.0029068554285913706,0.14449763298034668
2024-05-13 17:28:26.319963,0.31258430105672114,0.1776302618050754,-177.62150091352612,0.003832117421552539,0.002350675640627742,-1.000522255897522,-0.001519414596259594,-0.003196557518094778,0.14050792157649994
2024-05-13 17:28:26.336442,0.3140081286944043,0.17844071977899298,-177.44065116468252,0.009974068030714989,-0.001237373915500939,-0.9975218772888184,0.000259682594332844,-0.0006174176232889295,0.13888877630233765
2024-05-13 17:28:26.356186,0.31442362297543797,0.17621980106104135,-177.27168594499474,0.006096752360463142,-0.006145887542515993,-0.9998143911361694,-7.909195846877992e-05,-0.0021964351180940866,0.13703197240829468
2024-05-13 17:28:26.380202,0.31572293306290067,0.17397943231221105,-177.10575332929844,0.01047556009143591,-0.008003011345863342,-1.0006376504898071,-0.00020165546447969973,-0.002871610689908266,0.13347406685352325
2024-05-13 17:28:26.397767,0.3162373050043408,0.17804023323783486,-176.92376976905263,0.010971533134579659,-0.002992826048284769,-1.001997470855713,0.00029037537751719356,0.001218433491885662,0.13236942887306213
2024-05-13 17:28:26.416243,0.3111789095937117,0.17695935580168035,-176.73320749120927,0.006248761899769306,0.002261682879179716,-1.001793622970581,-0.0012917871354147792,-0.001198003999888897,0.12947317957878113
2024-05-13 17:28:26.440186,0.3062615202368463,0.16877785639306286,-176.55399698776648,0.00669813109561801,-0.00027322463574819267,-0.9968851804733276,-0.003364220727235079,-0.006713196635246277,0.1274142563343048
2024-05-13 17:28:26.449787,0.30458905770511874,0.163623504828723,-176.38474490013357,0.008999279700219631,-0.005863348953425884,-1.0017277002334595,-0.002488608006387949,-0.005153169855475426,0.1296321004629135
2024-05-13 17:28:26.460613,0.3020188788647841,0.164918519367528,-176.22330654891115,0.01028709951788187,-0.010796741582453251,-1.0016885995864868,-0.005051911808550358,-0.001933604129590094,0.13033698499202728
2024-05-13 17:28:26.499578,0.29924587542261183,0.1616502871898901,-176.06520133000367,0.006225230637937784,-0.005238408222794533,-1.0005779266357422,-0.0022778762504458427,-0.0031044469214975834,0.12403862923383713
2024-05-13 17:28:26.508090,0.2938849773369452,0.15734512023845323,-175.90563445061386,0.010588872246444225,0.0018031976651400328,-1.0035101175308228,-0.002641409169882536,-0.005828521214425564,0.11862774938344955
2024-05-13 17:28:26.536204,0.28980922203229875,0.15258493195420392,-175.74680523165438,0.009706906042993069,0.0002310476847924292,-0.9992517828941345,-0.0023011418525129557,-0.005440479144454002,0.11853066086769104
2024-05-13 17:28:26.555046,0.29062735062881934,0.14969925707115286,-175.59839888136833,0.003666530828922987,-0.004935302771627903,-1.0001521110534668,-5.184387555345893e-05,-0.0024263847153633833,0.1183057576417923
2024-05-13 17:28:26.578038,0.29123403684576044,0.1458704024328318,-175.45682272025232,0.004246077500283718,-0.009567087516188622,-1.0008132457733154,-0.0020806007087230682,-0.002709220163524151,0.11646445095539093
2024-05-13 17:28:26.596200,0.288602226220337,0.14441513191258273,-175.30829342656122,0.0027090455405414104,-0.005035771522670984,-1.0007221698760986,-0.0026358114555478096,-0.0011389628052711487,0.11529131978750229
2024-05-13 17:28:26.616878,0.2864656043097395,0.1471242490736316,-175.14826209430782,0.010585775598883629,-0.0008801550138741732,-1.002036213874817,-0.0013055441668257117,-0.0004655461525544524,0.11568635702133179
2024-05-13 17:28:26.638240,0.28512675383028474,0.14788374743303853,-174.99253378123151,0.00917434599250555,-0.0005440401146188378,-1.0005559921264648,1.633631472941488e-05,-0.0009560922044329345,0.11436179280281067
2024-05-13 17:28:26.655771,0.28288861289706263,0.14673762301401186,-174.8505204880086,0.012326578609645367,-0.00484237726777792,-0.9988815784454346,-0.002706719096750021,-0.0028735105879604816,0.11000695824623108
2024-05-13 17:28:26.679210,0.2843283687493337,0.1431897799672266,-174.70991421375473,0.007959293201565742,-0.007769697345793247,-0.9988928437232971,-0.0010653623612597585,-0.0031311491038650274,0.10687676817178726
2024-05-13 17:28:26.698202,0.2834347078655463,0.14203204956269622,-174.56440386367677,0.006886375602334738,-0.006190747022628784,-1.0018314123153687,-0.0007924463134258986,-0.0016948712291195989,0.10702259838581085
2024-05-13 17:28:26.715437,0.28135339447897006,0.14023282832492676,-174.41452219253003,0.002795145846903324,-0.0009980991017073393,-1.0011404752731323,-0.00031558412592858076,-0.001212417148053646,0.1061001718044281
2024-05-13 17:28:26.739363,0.27771984056222904,0.13855273519123584,-174.2723996162804,0.004607911221683025,-0.001052521518431604,-1.00103759765625,-0.001001454540528357,-0.0008179112919606268,0.1033000499010086
2024-05-13 17:28:26.758203,0.2754444003928363,0.13981330529949987,-174.13869183308825,0.006979731842875481,-0.0023340543266385794,-1.0025357007980347,-0.001493045361712575,-0.0008924315916374326,0.10172686725854874
2024-05-13 17:28:26.772817,0.27530784997028895,0.14079222348599343,-174.01856246596606,0.010141248814761639,-0.007562863174825907,-1.0004961490631104,-0.0014079565880820155,-0.0005408212309703231,0.09987407177686691
2024-05-13 17:28:26.799326,0.2747881686239862,0.14071330278456806,-173.89787302333193,0.009729720652103424,-0.003878315445035696,-1.00008225440979,-0.0009614155860617757,-0.0020447256974875927,0.09692014753818512
2024-05-13 17:28:26.818128,0.27336343385180384,0.14119200299585075,-173.77174675011847,0.00560712069272995,-0.0008075741352513433,-0.9993829131126404,0.00034642673563212156,0.0001547686697449535,0.09399166703224182
2024-05-13 17:28:26.835348,0.27421339219707375,0.14255290484776256,-173.65389866617906,0.007647777441889048,-0.0037004740443080664,-1.0021048784255981,0.000450293708126992,-0.00018169646500609815,0.09212976694107056
2024-05-13 17:28:26.859405,0.27469604111147033,0.14097871966684652,-173.5341927707854,0.007398576475679874,-0.0053407056257128716,-1.000610113143921,0.00025978454505093396,-0.0019099325872957706,0.08998025208711624
2024-05-13 17:28:26.878059,0.2760590640572846,0.14102545043376558,-173.41062098832154,0.010403238236904144,-0.005451270379126072,-1.0006355047225952,0.000903206062503159,-0.002606669906526804,0.09041387587785721
2024-05-13 17:28:26.898273,0.27296079953631686,0.14091736802623542,-173.2800277713909,0.008300510235130787,-0.0020313700661063194,-1.0045157670974731,-0.0010803563054651022,-0.0016182528343051672,0.08749900013208389
2024-05-13 17:28:26.920103,0.27044865062350093,0.13841517091248356,-173.15392881893413,0.0071169850416481495,-0.0028641775716096163,-0.9995145201683044,-0.0018981829052791,-0.0035992988850921392,0.08721879869699478
2024-05-13 17:28:26.935179,0.2659538258606772,0.1340238528640546,-173.03267930078806,0.003339668968692422,-0.0012799197575077415,-1.0005744695663452,-0.002676475327461958,-0.0032550147734582424,0.08655795454978943
2024-05-13 17:28:26.956161,0.2650569633257163,0.1326062551059464,-172.9160060093859,0.008683286607265472,-0.003474289318546653,-0.9996903538703918,-0.0015339999226853251,-0.003012748435139656,0.08373069018125534
2024-05-13 17:28:26.980211,0.2623822772549952,0.13223782509716236,-172.8039909069977,0.00956910103559494,-0.004313947632908821,-0.9999493956565857,-0.0018329391023144126,-0.0030632202979177237,0.08095346391201019
2024-05-13 17:28:26.991983,0.26014805834446053,0.13113176133844343,-172.70314999409163,0.008259754627943039,-0.00565677136182785,-1.0028026103973389,-0.002811575774103403,-0.002854493912309408,0.07798456400632858
2024-05-13 17:28:27.016054,0.2561666983885778,0.12751593656507537,-172.59987753384104,0.006767148617655039,-0.0016927284887060523,-1.000759243965149,-0.0018200045451521873,-0.0044238027185201645,0.07649088650941849
2024-05-13 17:28:27.040210,0.254211396656103,0.1247369433671661,-172.5000338285538,0.004230623133480549,-0.000721307413186878,-1.0006784200668335,-0.0007631442858837545,-0.003394095925614238,0.07422174513339996
2024-05-13 17:28:27.054413,0.2546181130768361,0.12315646160560896,-172.40352325558152,0.006389514543116093,-0.0033278637565672398,-1.0027339458465576,0.00015270298172254115,-0.0028737778775393963,0.07417462766170502
2024-05-13 17:28:27.076197,0.2573850333817788,0.12207394332322805,-172.31298226794382,0.007940292358398438,-0.006729301065206528,-1.0028185844421387,0.0009034732356667519,-0.003026674035936594,0.07133367657661438
2024-05-13 17:28:27.100225,0.25630292864600784,0.1197047347950931,-172.2188076196677,0.009640953503549099,-0.004696742165833712,-1.0002166032791138,-0.0008504166034981608,-0.0037486962974071503,0.0678432509303093
2024-05-13 17:28:27.116916,0.25232666465157616,0.11537994439000565,-172.12135448058996,0.006680266000330448,8.179864380508661e-05,-1.0009887218475342,-0.0013704884331673384,-0.004811445251107216,0.06581248342990875
2024-05-13 17:28:27.135911,0.2508408317028339,0.11202170579375434,-172.02851854939112,0.00241925660520792,-0.0003139492473565042,-0.9996377825737,-3.885332262143493e-05,-0.0033077001571655273,0.0643540471792221
2024-05-13 17:28:27.159929,0.25166853857244836,0.11124733309660415,-171.94998503431432,0.00535739678889513,-0.004041616339236498,-1.000076174736023,-0.0003104808274656534,-0.0017274830024689436,0.06329695880413055
2024-05-13 17:28:27.170076,0.25331117238741,0.11182345021494547,-171.87287219858487,0.006151257082819939,-0.00593027425929904,-1.0014419555664062,0.0005767146358266473,-0.001121936016716063,0.06079566851258278
2024-05-13 17:28:27.180958,0.25351863938344915,0.11436790245408017,-171.796182834584,0.011348211206495762,-0.004632757045328617,-1.0018422603607178,0.0002441838732920587,-0.0012203039368614554,0.05698978155851364
2024-05-13 17:28:27.219408,0.25231791347170207,0.11219211367746088,-171.71658380999665,0.007604912854731083,-0.001737774582579732,-1.0001344680786133,0.00013483400107361376,-0.0030469922348856926,0.053817495703697205
2024-05-13 17:28:27.228762,0.25110816957581644,0.10883399514312857,-171.6370804080577,0.005031220614910126,-0.0008944161236286163,-1.000583291053772,-5.4653268307447433e-05,-0.002033078810200095,0.052517179399728775
2024-05-13 17:28:27.241823,0.25005218497753545,0.10608283630010842,-171.55580115693456,0.0024146877694875,-0.0024003430735319853,-1.0011500120162964,3.554168506525457e-05,-0.00226725940592587,0.052787959575653076
2024-05-13 17:28:27.280189,0.25071540701811423,0.10767640481083703,-171.48564145378018,0.006235590670257807,-0.005018382333219051,-1.0017938613891602,-0.000438402610598132,-0.0006876670522615314,0.05084887892007828
2024-05-13 17:28:27.290517,0.25010736009942447,0.10970583810819029,-171.41917005277762,0.013561361469328403,-0.006264758296310902,-1.0022509098052979,-0.0014735307777300477,-0.001498931902460754,0.048212360590696335
2024-05-13 17:28:27.316213,0.2496772716251252,0.11027669251241526,-171.3482043873012,0.008824021555483341,-0.002302109496667981,-1.0010967254638672,-0.0005578389973379672,-0.0019865580834448338,0.04521767422556877
2024-05-13 17:28:27.335800,0.24935374477404876,0.10765655457356167,-171.2754082311272,0.005932619329541922,-0.0016432241536676884,-1.00180983543396,-4.8486726882401854e-05,-0.0029837635811418295,0.042667992413043976
2024-05-13 17:28:27.358148,0.2493911240514987,0.10215260938150822,-171.2087592452062,0.0013042059727013111,-0.004024163819849491,-0.9998303055763245,-0.0009034903487190604,-0.0036771069280803204,0.040793366730213165
2024-05-13 17:28:27.375589,0.2481686269117722,0.09870906012169786,-171.14185071209675,0.0034827864728868008,-0.0030899320263415575,-1.0005106925964355,-0.0003598841140046716,-0.0037214155308902264,0.03974676504731178
2024-05-13 17:28:27.397992,0.2473083699218944,0.09953746068239991,-171.07689561308993,0.008201461285352707,-0.0025613196194171906,-0.9995160102844238,0.00030792292091064155,-0.00237881182692945,0.03892874717712402
2024-05-13 17:28:27.418177,0.24690226715096952,0.10088133375213298,-171.01806036357945,0.011476105079054832,-0.003754477482289076,-1.0010583400726318,-0.0006439295830205083,-0.002677971962839365,0.0361882820725441
2024-05-13 17:28:27.436110,0.24597581602308077,0.09988003068785176,-170.96184790671023,0.009276147000491619,-0.004260758403688669,-1.000477910041809,-0.0013576527126133442,-0.002569362288340926,0.03320690989494324
2024-05-13 17:28:27.449849,0.2442068770693268,0.09818582360857125,-170.90578571400277,0.003397830994799733,-0.0019001157488673925,-1.0017547607421875,-0.0005925910081714392,-0.00172548892442137,0.0315256267786026
2024-05-13 17:28:27.478134,0.24354680331906853,0.09746561217710514,-170.8581519747311,0.003624744713306427,-0.002606424503028393,-1.0012367963790894,0.0006876381230540574,-0.0011369436979293823,0.027445415034890175
2024-05-13 17:28:27.495591,0.24368514133018773,0.10003270942818535,-170.8155862358236,0.007733022328466177,-0.004083475563675165,-1.0008167028427124,-0.0008866447024047375,-0.0006015276885591447,0.026341447606682777
2024-05-13 17:28:27.511448,0.24307170496535596,0.09952813587335727,-170.77288389313267,0.009474110789597034,-0.0033713546581566334,-1.0020394325256348,0.000424287689384073,-0.00213676318526268,0.023828163743019104
2024-05-13 17:28:27.522885,0.243186430799071,0.0994078738511548,-170.74046781533178,0.007041206583380699,-0.0024363379925489426,-1.000533938407898,0.0006794258370064199,-0.002419347409158945,0.020904671400785446
2024-05-13 17:28:27.556080,0.24319214041033033,0.09919175572684075,-170.70619392607665,0.006527976598590612,-0.0030173815321177244,-1.0010359287261963,0.00023484107805415988,-0.0016483289655297995,0.02023603394627571
2024-05-13 17:28:27.585890,0.24314296838439153,0.09703998600412889,-170.67200199909158,0.0027328995056450367,-0.0018044882453978062,-1.0001949071884155,0.0009173883590847254,-0.0015633900184184313,0.018791737034916878
2024-05-13 17:28:27.598215,0.24326297694254276,0.09656169266934948,-170.64032358172105,0.005639928858727217,-0.001331634121015668,-1.0009477138519287,0.002182526048272848,-0.0013178085209801793,0.014677295461297035
2024-05-13 17:28:27.615267,0.24405087661590077,0.09917337291301989,-170.6184942971337,0.010771457105875015,-0.004431098699569702,-1.0013254880905151,0.0004117748758289963,-0.001307755010202527,0.011309189721941948
2024-05-13 17:28:27.640225,0.2426967115716664,0.0986041593550213,-170.59696554086983,0.009261321276426315,-0.005027620121836662,-1.0009130239486694,-0.001496420707553625,-0.0029326060321182013,0.011471284553408623
2024-05-13 17:28:27.650909,0.2422577118349344,0.09598216712652977,-170.57441225623043,0.003986292518675327,-0.002517636166885495,-1.001189947128296,0.0005252559203654528,-0.0027500116266310215,0.007897336035966873
2024-05-13 17:28:27.676151,0.24088521733773208,0.0963376171078481,-170.55189995272607,0.005501110572367907,-0.0019420005846768618,-1.0000344514846802,-0.0010892432183027267,-0.000858836923725903,0.005837108474224806
2024-05-13 17:28:27.700217,0.24001148673249936,0.09597049443995992,-170.5317372342962,0.005496117752045393,-0.002681376878172159,-1.0012733936309814,-0.00014216738054528832,-0.00117238680832088,0.0049198404885828495
2024-05-13 17:28:27.710533,0.23839278526005922,0.09712067428380627,-170.51705232758067,0.006948419846594334,-0.0021191032137721777,-1.000308871269226,-7.951463339850307e-05,-0.0013198615051805973,0.003060347167775035
2024-05-13 17:28:27.736101,0.23956893849905014,0.09828093265874235,-170.50684802496068,0.008591225370764732,-0.003974909894168377,-1.0011957883834839,0.00036375399213284254,-0.0008619592408649623,0.0016425023786723614
2024-05-13 17:28:27.760127,0.2396955371225334,0.09837804941100348,-170.49564651472184,0.007298862095922232,-0.003134095575660467,-1.0005617141723633,0.0007164659327827394,-0.002413081703707576,0.0016156432684510946
2024-05-13 17:28:27.773294,0.23937918730617072,0.09637057410461475,-170.4812894570865,0.004168973304331303,-0.00217916420660913,-1.000139832496643,0.0005123724695295095,-0.0012893264647573233,0.0007862289203330874
2024-05-13 17:28:27.801325,0.24012960098037298,0.09518741058357531,-170.4692546637689,0.004899859894067049,-0.0018627403769642115,-1.0010887384414673,0.0005870498716831207,-0.0015631045680493116,0.0009723765542730689
2024-05-13 17:28:27.820219,0.24151210063749232,0.09672967263424949,-170.4621785877888,0.007373725064098835,-0.0035908014979213476,-1.0002596378326416,0.00022800403530709445,-0.0004724568862002343,0.0007815176504664123
2024-05-13 17:28:27.835355,0.2428232301538703,0.09619268236129029,-170.4568920213712,0.007360054645687342,-0.005654080770909786,-1.0012520551681519,0.00013794604456052184,-0.0023070683237165213,0.000642142491415143
2024-05-13 17:28:27.856007,0.24359082602270338,0.09402196953580222,-170.45015745484957,0.007103221025317907,-0.003912412561476231,-0.9999479055404663,0.0005328755360096693,-0.0038349998649209738,-0.0008868988370522857
2024-05-13 17:28:27.880234,0.2444852606388577,0.0893647610275254,-170.44473428464858,0.006018938962370157,-0.004375578369945288,-1.0009933710098267,0.0011308910325169563,-0.004986417014151812,-0.0012754746712744236
2024-05-13 17:28:27.897828,0.24516102247986585,0.08578428114909083,-170.4351856801889,0.004822466056793928,-0.0030183771159499884,-0.9995296001434326,0.0007395048160105944,-0.003993668127804995,-0.0009686920675449073
2024-05-13 17:28:27.916121,0.24723435841893496,0.08128412697108463,-170.43248092527756,0.004831333179026842,-0.005486540496349335,-1.0011008977890015,0.0011726710945367813,-0.0042752912268042564,-0.0033974251709878445
2024-05-13 17:28:27.940226,0.24796180024596776,0.07884077353785801,-170.4320847743057,0.007011391222476959,-0.004098698031157255,-0.9993296265602112,-0.00018828531028702855,-0.003968616481870413,-0.004449052736163139
2024-05-13 17:28:27.948918,0.24824317202326054,0.07934362620518037,-170.4321530761974,0.006428715772926807,-0.004173265304416418,-0.9995020627975464,0.00032004097010940313,-0.0015052453381940722,-0.008128865621984005
2024-05-13 17:28:27.976031,0.24623776444992132,0.0801997744093856,-170.43671564256297,0.0033717716578394175,-0.001989231910556555,-1.0002672672271729,-0.001110841752961278,-0.0003353726351633668,-0.011384976096451283
2024-05-13 17:28:27.999568,0.2443348630749852,0.08237564322728423,-170.43731669920993,0.00420341594144702,-0.0021144000347703695,-1.0000956058502197,-0.0008498402312397957,0.0010541693773120642,-0.014110421761870384
2024-05-13 17:28:28.009480,0.24319419480316662,0.08773946281964665,-170.44599103945586,0.006095570512115955,-0.0027983887121081352,-1.0003619194030762,-0.00020452821627259254,0.00228515244089067,-0.015944818034768105
2024-05-13 17:28:28.036122,0.24228172421873523,0.09357636639352501,-170.46343534259606,0.007960950955748558,-0.002130272565409541,-1.0007456541061401,0.0001040788774844259,0.003247263841331005,-0.019704042002558708
2024-05-13 17:28:28.055081,0.2448103883155209,0.10036907623448864,-170.4834477968642,0.007940107025206089,-0.0028786510229110718,-0.9999749660491943,0.0017380468780174851,0.003939966671168804,-0.021301236003637314
2024-05-13 17:28:28.078099,0.2482223346102067,0.10520765828174104,-170.50314606243052,0.0057510752230882645,-0.0028754351660609245,-1.0018566846847534,0.002925487235188484,0.0029830446001142263,-0.025188548490405083
2024-05-13 17:28:28.095660,0.25094803365629137,0.11052954958394456,-170.52553542252983,0.005380973685532808,-0.0022253794595599174,-1.0013484954833984,0.002175118075683713,0.004468664061278105,-0.029612328857183456
2024-05-13 17:28:28.116801,0.25130907318695,0.11661132611173845,-170.5441954993423,0.0073590404354035854,-0.0012616238091140985,-1.0022255182266235,0.0014960500411689281,0.0030530313961207867,-0.03237161785364151
2024-05-13 17:28:28.138017,0.25282678924529445,0.12116812950519477,-170.5667487839817,0.008129694499075413,-0.0019545149989426136,-1.0014580488204956,0.002480659633874893,0.0017175377579405904,-0.03522222489118576
2024-05-13 17:28:28.156236,0.25426259639445165,0.1263321393839079,-170.59305867266457,0.009560389444231987,-0.0012064723996445537,-1.0025055408477783,0.0032459450885653496,0.0017296704463660717,-0.03832445666193962
2024-05-13 17:28:28.179425,0.2557589147507869,0.12869172961830927,-170.628589316727,0.006959958933293819,-0.002640373772010207,-1.0015934705734253,0.002142029581591487,0.0005828130524605513,-0.041264358907938004
2024-05-13 17:28:28.198108,0.25504443961100653,0.1306429759259644,-170.66298614938717,0.008816823363304138,-0.001829825690947473,-1.0023231506347656,0.0006677914643660188,-0.000535681436304003,-0.04285113513469696
2024-05-13 17:28:28.216292,0.25556422767901504,0.1330859158125811,-170.70120788798255,0.006148988846689463,-0.0027785797137767076,-1.0020158290863037,0.0009405484306626022,0.0001342663454124704,-0.04661117494106293
2024-05-13 17:28:28.230354,0.2566284565290677,0.1364813202428708,-170.74176555127409,0.010737024247646332,-0.0037430240772664547,-1.000792145729065,0.0008580057183280587,-0.0005926014273427427,-0.05097465217113495
2024-05-13 17:28:28.242935,0.25791552030079196,0.13618612800467933,-170.78538313931378,0.008182313293218613,-0.003695776918902993,-1.0006258487701416,0.0015746942954137921,-0.0019185461569577456,-0.05211406946182251
2024-05-13 17:28:28.291166,0.2576019452487796,0.13435778508144475,-170.8845301653057,0.006638214457780123,-0.003207485657185316,-1.0001344680786133,-0.0003936356515623629,-0.0022051543928682804,-0.05473334714770317
2024-05-13 17:28:28.318225,0.25832981396263555,0.13338241539166842,-170.93704065964477,0.004415612667798996,-0.0029130526818335056,-1.0013635158538818,0.0011670419480651617,-0.0016111652366816998,-0.05630047246813774
2024-05-13 17:28:28.335315,0.2572795122951874,0.1341990765647345,-170.98433288945793,0.006616035010665655,-0.0006163454381749034,-1.0021272897720337,3.496586577966809e-05,-0.0015202114591374993,-0.05746027082204819
2024-05-13 17:28:28.359352,0.25821212660158505,0.13649021816509033,-171.0479082902524,0.006447403691709042,-0.004380630794912577,-1.0016140937805176,0.0008049770840443671,0.00032777339220046997,-0.0619819313287735
2024-05-13 17:28:28.378221,0.26008690680704777,0.13892494048036189,-171.11406550255313,0.008661805652081966,-0.0016038567991927266,-1.000347375869751,0.0027700162027031183,-0.0006262719398364425,-0.06719428300857544
2024-05-13 17:28:28.387858,0.26230781218478616,0.1405538205354909,-171.18779056445427,0.007698627654463053,-0.0017853237222880125,-1.000740647315979,0.002933249808847904,-0.0009534812998026609,-0.06989538669586182
2024-05-13 17:28:28.420221,0.26474125383958835,0.1414015243847262,-171.26566838137074,0.00927608460187912,-0.004503218922764063,-0.9997429847717285,0.002340136794373393,-0.0015757259679958224,-0.070111945271492
2024-05-13 17:28:28.432220,0.26473543750662326,0.14155290912437718,-171.34019940559392,0.00459823664277792,-0.003668889869004488,-1.0001124143600464,0.001339086564257741,-0.0008364113164134324,-0.0719626173377037
2024-05-13 17:28:28.456039,0.2645628951888011,0.14268245165836801,-171.4163013733262,0.006490197032690048,-0.0034875033888965845,-1.0013036727905273,0.00034782293369062245,-0.0003578272880986333,-0.07349836826324463
2024-05-13 17:28:28.486257,0.2630640155115271,0.14516323772989748,-171.48935707668866,0.00762000260874629,-0.0028898497112095356,-0.9990804195404053,-0.00035182241117581725,0.0003082513576373458,-0.07292232662439346
2024-05-13 17:28:28.491806,0.26493938268637157,0.14685677779851686,-171.56648357279644,0.008885661140084267,-0.004379835445433855,-1.0019041299819946,0.0017237428110092878,-0.0002257578307762742,-0.07356075197458267
2024-05-13 17:28:28.516052,0.2653450852508998,0.14730250100271308,-171.64335052171577,0.008460699580609798,-0.004117307253181934,-1.0005260705947876,0.0012316213687881827,-0.002036004327237606,-0.07672461122274399
2024-05-13 17:28:28.540218,0.26596735283688494,0.14800893199392015,-171.7195754328531,0.010448714718222618,-0.0031508721876889467,-1.00179922580719,0.0008352788863703609,-0.0022377450950443745,-0.07882606983184814
2024-05-13 17:28:28.554227,0.26417949746078123,0.14655230077192238,-171.7986417026852,0.0055592842400074005,-0.0019212999613955617,-1.0016707181930542,-0.0004920108476653695,-0.0030780963134020567,-0.0845731794834137
2024-05-13 17:28:28.575858,0.26265428420260567,0.14698475046396203,-171.8757818591713,0.00877421535551548,0.0005488405586220324,-1.0017918348312378,0.00048670146497897804,-0.002326285233721137,-0.08596488833427429
2024-05-13 17:28:28.600199,0.2649877276190906,0.14975555277095257,-171.96580375243207,0.00729102548211813,-0.00307187857106328,-0.9998985528945923,0.0018319037044420838,-0.0001575136266183108,-0.0873570665717125
2024-05-13 17:28:28.616892,0.2664984534057063,0.15191901519055412,-172.0533121360783,0.008100519888103008,-0.003042419208213687,-0.999491274356842,0.0021315424237400293,-0.0007771222153678536,-0.08577138185501099
2024-05-13 17:28:28.636194,0.2677164148729371,0.15169776775425595,-172.15247282244852,0.006045655347406864,-0.003939085174351931,-1.0003598928451538,0.0020141415297985077,-0.001816720818169415,-0.08963029831647873
2024-05-13 17:28:28.660426,0.26996955020582153,0.14936950034050142,-172.24391539505666,0.003191675990819931,-0.0006079793092794716,-1.00236177444458,0.003204730339348316,-0.002668072935193777,-0.0904233530163765
2024-05-13 17:28:28.669905,0.27085299248628036,0.15170363744807394,-172.33895064716822,0.008723727427423,-0.0023545012809336185,-1.0014089345932007,0.0016615120694041252,-0.0014696076977998018,-0.09170518070459366
2024-05-13 17:28:28.701538,0.27429137908357354,0.15391477778973334,-172.44681299454106,0.008420402184128761,-0.007465835195034742,-1.0017203092575073,0.002403882797807455,-0.00039192326948978007,-0.09302680939435959
2024-05-13 17:28:28.719374,0.27681948289140385,0.15439078327794503,-172.55862319125416,0.008530912920832634,-0.005693445913493633,-0.99941486120224,0.0019151384476572275,-0.0020067766308784485,-0.09813715517520905
2024-05-13 17:28:28.729002,0.27813304032658837,0.15487595349264074,-172.66980501056364,0.008461076766252518,-0.0035694451071321964,-0.99958336353302,0.0019701046403497458,-0.002231190213933587,-0.10189467668533325
2024-05-13 17:28:28.756226,0.2781420583107269,0.15397578258480066,-172.76858320634037,0.008704878389835358,-0.0005945412558503449,-1.0017895698547363,0.0014013457112014294,-0.0030619956087321043,-0.09986016154289246
2024-05-13 17:28:28.773680,0.27763990600459876,0.15418910593444454,-172.8703803457302,0.0064542945474386215,-0.0018582319607958198,-1.000430941581726,0.0009164874209091067,-0.0022395348642021418,-0.0997004583477974
2024-05-13 17:28:28.782730,0.2785735875280542,0.15322540893123807,-172.97952676866703,0.007961763069033623,-0.00046376942191272974,-1.000754475593567,0.0019167941063642502,-0.002438100054860115,-0.10223408043384552
2024-05-13 17:28:28.816225,0.2785826588730456,0.15327352708033226,-173.09215658808054,0.00911747571080923,-0.004143419675529003,-1.0000168085098267,0.0011614835821092129,-0.0023734397254884243,-0.10382868349552155
2024-05-13 17:28:28.835838,0.2796823193294177,0.1520532177355743,-173.2078053511072,0.006554972846060991,-0.0058511048555374146,-1.0010159015655518,-0.00024930908693931997,-0.0028125299140810966,-0.10590372234582901
2024-05-13 17:28:28.858009,0.2782796759503321,0.14970400618706015,-173.32678724644882,0.00328547740355134,-0.004427884239703417,-1.0001181364059448,-0.0005490354378707707,-0.0019213156774640083,-0.10912761092185974
2024-05-13 17:28:28.875637,0.2797795961642375,0.14946839134112114,-173.44373374541777,0.0029429455753415823,-0.0012095840647816658,-1.0015488862991333,0.002347294008359313,-0.0005292543210089207,-0.11284596472978592
2024-05-13 17:28:28.897862,0.28033697695310755,0.1506973318038342,-173.56324839551465,0.008252216503024101,2.490467159077525e-05,-1.0009405612945557,0.002366424538195133,-0.0013415997382253408,-0.1145867332816124
2024-05-13 17:28:28.918125,0.2835237404485945,0.1509423648403084,-173.69340448033842,0.010955991223454475,-0.005003320053219795,-1.0003563165664673,0.002352277748286724,-0.0034007832873612642,-0.1150582879781723
2024-05-13 17:28:28.936124,0.2880869204639713,0.1526714298967398,-173.83570464150645,0.011057420633733273,-0.008198460564017296,-1.0011154413223267,0.0025645606219768524,-0.0019361958838999271,-0.11466141790151596
2024-05-13 17:28:28.950500,0.29052057556218497,0.1568545739178288,-173.96995883983223,0.005843359045684338,-0.004967829678207636,-0.9995374083518982,0.002778463065624237,0.001456594793125987,-0.11524949967861176
2024-05-13 17:28:28.978147,0.2902667913458367,0.16184993682098076,-174.09600315077566,0.007187011651694775,-0.0011110007762908936,-1.0007445812225342,0.0019242562120780349,0.0016734356759116054,-0.11579756438732147
2024-05-13 17:28:28.995618,0.2891431718665167,0.16347956392805027,-174.2143430083353,0.007313075475394726,-0.00026228802744299173,-1.000997543334961,0.001972486963495612,-2.9689399525523186e-06,-0.11887402832508087
2024-05-13 17:28:29.010450,0.2872612946676195,0.16533230610126912,-174.34366581008032,0.008678624406456947,-0.0003772172494791448,-1.0012086629867554,0.0007808755035512149,-0.0007450420525856316,-0.12435497343540192
2024-05-13 17:28:29.022949,0.28962667455455954,0.1681075506992628,-174.48561080141153,0.01325046457350254,-0.00751023693010211,-0.9999344348907471,0.0004522099916357547,-0.000966655439697206,-0.12632864713668823
2024-05-13 17:28:29.056110,0.29348330351681023,0.16548000894207066,-174.63008296273563,0.003941049333661795,-0.007761756889522076,-1.0011428594589233,0.002627379260957241,-0.0024927903432399035,-0.1254010945558548
2024-05-13 17:28:29.070882,0.2926265950236496,0.1643046027550202,-174.7677795764031,0.0050479453057050705,-0.00333259254693985,-1.0019352436065674,0.0012045102193951607,-0.003221927909180522,-0.12715132534503937
2024-05-13 17:28:29.098230,0.2946515059887204,0.1650981586787846,-174.90154200110862,0.004942247178405523,0.0027960571460425854,-1.0006098747253418,0.0045143659226596355,-0.0007567880093120039,-0.12746380269527435
2024-05-13 17:28:29.115204,0.2963261829958429,0.1682766912627132,-175.0328318973346,0.010567464865744114,0.0025844103656709194,-1.0008063316345215,0.0040751006454229355,-0.00200349441729486,-0.12728795409202576
2024-05-13 17:28:29.139298,0.2999779062829932,0.17097972528653252,-175.1837517572352,0.010546625591814518,-0.007197234313935041,-0.9999827742576599,0.002578244311735034,-0.0013042920036241412,-0.12746305763721466
2024-05-13 17:28:29.158066,0.3037640989194281,0.1716297004953812,-175.3465424859133,0.005174996331334114,-0.013381609693169594,-0.9996876120567322,0.0010424014180898666,-7.998140063136816e-05,-0.13230931758880615
2024-05-13 17:28:29.168555,0.30090950673318595,0.17412996327821578,-175.49601434570985,0.004937253426760435,-0.0038417254108935595,-1.0034000873565674,0.00013973053137306124,0.0006117994198575616,-0.13754162192344666
2024-05-13 17:28:29.199312,0.29563932209743354,0.17447466104767664,-175.63010461949554,0.0076252855360507965,0.003502178005874157,-0.9988659620285034,-0.0004616558726411313,-0.0020698963198810816,-0.13801059126853943
2024-05-13 17:28:29.217331,0.2928318208638674,0.17195426788308904,-175.76166772328833,0.010197186842560768,0.001971255289390683,-0.9976605772972107,0.00036738294875249267,-0.004430144093930721,-0.13479386270046234
2024-05-13 17:28:29.230436,0.29496094557463376,0.16881871746616395,-175.9160983004223,0.008548450656235218,-0.007808153983205557,-0.9999867677688599,0.0018721139058470726,-0.005176112521439791,-0.13530007004737854
2024-05-13 17:28:29.259228,0.30078805743200665,0.17251927927392247,-176.07435378349152,0.008123515173792839,-0.007235820405185223,-1.001031756401062,0.0033823552075773478,-0.0007267125183716416,-0.13684527575969696
2024-05-13 17:28:29.273495,0.30286934413815647,0.17336386151326363,-176.22314262437106,0.00541310990229249,-0.0012222907971590757,-1.0025943517684937,0.003631231840699911,-0.000709252490196377,-0.13632021844387054
2024-05-13 17:28:29.295891,0.30019188330308505,0.17251645114871927,-176.37210905016903,0.007917053997516632,0.00411129929125309,-0.9994928240776062,0.0028351370710879564,-0.002944367006421089,-0.13760748505592346
2024-05-13 17:28:29.320182,0.30233264067978155,0.17209439348278008,-176.53367034479652,0.004368573427200317,-0.0018801265396177769,-1.0001909732818604,0.0034075481817126274,-0.0011096250964328647,-0.14247481524944305
2024-05-13 17:28:29.335797,0.3102020057794147,0.17828808105929905,-176.70973896122112,0.01174189429730177,-0.013255016878247261,-1.001898169517517,0.003865679958835244,0.000693202018737793,-0.14479289948940277
2024-05-13 17:28:29.356044,0.31578261717685896,0.17969201843906724,-176.88244712457404,0.008286275900900364,-0.012098079547286034,-1.0019729137420654,0.0030137680005282164,-0.000961654877755791,-0.14509481191635132
2024-05-13 17:28:29.386282,0.31263899593093414,0.18265842829254195,-177.0307851729684,0.015001552179455757,-0.0010089720599353313,-0.9997041821479797,0.000931202492211014,-0.0021834969520568848,-0.14590299129486084
2024-05-13 17:28:29.397993,0.3105679545085393,0.18234089119720248,-177.1740962021336,0.0062253959476947784,0.0058450400829315186,-0.9994660019874573,0.003085013944655657,-0.0010166330030187964,-0.14697152376174927
2024-05-13 17:28:29.416149,0.3124633586836443,0.1830143451813231,-177.32587666586963,0.00323865725658834,0.0008791674626991153,-1.0020006895065308,0.004944889806210995,-0.0006380589911714196,-0.1448194831609726
2024-05-13 17:28:29.440184,0.3171674647115055,0.18155815418636165,-177.5020818860776,0.0006450730725191534,-0.00969594158232212,-1.0020241737365723,0.002016735030338168,-0.00041147525189444423,-0.14583086967468262
2024-05-13 17:28:29.448848,0.3190680982501937,0.18142212403212998,-177.67466710602548,0.004382969345897436,-0.006888804491609335,-1.000830054283142,0.0011049266904592514,-0.0014994455268606544,-0.14987564086914062
2024-05-13 17:28:29.476035,0.3185335825867874,0.18787821360273907,-177.83290892871634,0.01436623279005289,-0.001324501121416688,-0.9992124438285828,0.0025391611270606518,0.0002786868717521429,-0.14845959842205048
2024-05-13 17:28:29.499400,0.31940629933581516,0.193175985799436,-177.9973252424169,0.012642069719731808,-0.004279615823179483,-0.9998204112052917,0.0012566462391987443,-0.00048435141798108816,-0.14886868000030518
2024-05-13 17:28:29.509291,0.31781982781852103,0.19181037485225658,-178.18107099146857,0.009364768862724304,-0.005381528753787279,-1.0018999576568604,0.0006543054478242993,-0.0027387128211557865,-0.1583942174911499
2024-05-13 17:28:29.536234,0.3189834412570826,0.19333947011247996,-178.3647620990069,0.009051892906427383,-0.0016965479589998722,-1.0018597841262817,0.002438837196677923,-0.0005613415851257741,-0.1638524830341339
2024-05-13 17:28:29.559346,0.31780400632563893,0.1939363112520627,-178.52917841270744,0.00792503822594881,0.0007728053024038672,-1.0000972747802734,0.0022303974255919456,-0.0009454004466533661,-0.1558307558298111
2024-05-13 17:28:29.578234,0.3153717652900268,0.1916769460396033,-178.69262483954586,0.005233538802713156,-0.0017790407873690128,-1.001091480255127,-0.00026796862948685884,-0.0024002997670322657,-0.15248166024684906
2024-05-13 17:28:29.590526,0.3173237052887695,0.18849554530983187,-178.8587077194039,0.0035963149275630713,-0.00208761147223413,-1.0006226301193237,0.0028258073143661022,-0.002430061809718609,-0.15383607149124146
2024-05-13 17:28:29.619737,0.32041812782832907,0.1917695137791555,-179.03477633582847,0.009722931310534477,-0.00385501841083169,-1.0032870769500732,0.00436078617349267,-0.0013057352043688297,-0.15504465997219086
2024-05-13 17:28:29.635490,0.3242722488304939,0.1945050579025985,-179.21184215987188,0.012619161047041416,-0.006793007720261812,-0.9969052076339722,0.0027380064129829407,-0.0024280932266265154,-0.15175925195217133
2024-05-13 17:28:29.647963,0.32646935526784304,0.194067285465483,-179.3934159087675,0.013879791833460331,-0.008210020139813423,-1.0007078647613525,0.0023001343943178654,-0.003960613626986742,-0.15668824315071106
2024-05-13 17:28:29.680172,0.3280262915530621,0.19265715822677948,-179.577475846521,0.005720130167901516,-0.000788938719779253,-1.0035218000411987,0.0032472352031618357,-0.002635037060827017,-0.16576573252677917
2024-05-13 17:28:29.690229,0.3282950168082198,0.19611459464855466,-179.75523834985975,0.0062925140373408794,0.00018608581740409136,-1.0019418001174927,0.0022386452183127403,0.0002256256848340854,-0.1651347428560257
2024-05-13 17:28:29.716107,0.32836571993830005,0.193379370690229,-179.9331374569819,0.0038920354563742876,-0.004033341072499752,-0.9995867609977722,0.000730067549739033,-0.0023153615184128284,-0.16067445278167725
2024-05-13 17:28:29.739294,0.3284656914961908,0.18868893838092107,179.88829043489162,-0.003652216400951147,-0.004634808283299208,-1.0019912719726562,0.0020124914590269327,-0.003073380794376135,-0.16087542474269867
2024-05-13 17:28:29.758255,0.32948376320849293,0.19551421835246788,179.70824664837008,0.008529998362064362,-0.0019191200844943523,-1.0022034645080566,0.0023347893729805946,0.0015443738084286451,-0.16415540874004364
2024-05-13 17:28:29.775891,0.33220727445960907,0.20171780436719808,179.5143375778334,0.014107542112469673,-0.006644540466368198,-0.9982866644859314,0.002584851114079356,-0.00023218721617013216,-0.16352665424346924
2024-05-13 17:28:29.789833,0.3331897544830331,0.20320072914945778,179.32154865832064,0.016262700781226158,-0.0059234932996332645,-0.99937504529953,0.002202994655817747,-0.003356446512043476,-0.1650274693965912
2024-05-13 17:28:29.804395,0.33177513159247357,0.20436423586631358,179.13479762603413,0.010668567381799221,-0.003543268423527479,-1.0034822225570679,0.00021713547175750136,-0.00233826064504683,-0.16565847396850586
2024-05-13 17:28:29.835756,0.3327528624999903,0.20675413506515689,178.950109310877,0.006936465855687857,-0.003672598395496607,-1.002547025680542,0.0015906774206086993,-0.00023842035443522036,-0.1642979234457016
2024-05-13 17:28:29.851320,0.32682858052950337,0.20710810428280751,178.7669099769589,0.003176890080794692,-0.0012474977411329746,-0.9994616508483887,-0.0026874318718910217,-0.0008915264625102282,-0.1690969318151474
2024-05-13 17:28:29.878241,0.32353360122435404,0.2046192340420651,178.5934914739323,0.0031471536494791508,0.0035498428624123335,-0.998500406742096,0.0010504701640456915,-0.001984233036637306,-0.17081308364868164
2024-05-13 17:28:29.895302,0.3213303049280696,0.20798765122100532,178.41605681967368,0.007516505196690559,0.0029087073635309935,-1.0031521320343018,0.0018499050056561828,8.457610965706408e-05,-0.17070645093917847
2024-05-13 17:28:29.919567,0.32696996010923735,0.21078944284331216,178.21723001293464,0.013626042753458023,-0.0064366282895207405,-0.9967095255851746,0.0032031869050115347,-0.002566591603681445,-0.16975393891334534
2024-05-13 17:28:29.938166,0.3311112425412336,0.21006556285320982,178.01299369637292,0.013241497799754143,-0.00821677502244711,-0.9976695775985718,0.004316963721066713,-0.004056996665894985,-0.1684250682592392
2024-05-13 17:28:29.950043,0.3327248213717962,0.20836810076190299,177.81521873876602,0.008001057431101799,-0.005032040178775787,-1.0037349462509155,0.002663880353793502,-0.002937251701951027,-0.1684173196554184
2024-05-13 17:28:29.979502,0.33280318178426627,0.20997352872218655,177.6341231031123,0.008059206418693066,-0.002888261806219816,-1.0017589330673218,0.0016927144024521112,-0.0010801291791722178,-0.16482268273830414
2024-05-13 17:28:29.997607,0.33093307065343147,0.20900146740528944,177.44992656157538,0.004319177474826574,-0.0034507198724895716,-0.9992152452468872,0.0006719018565490842,-0.002463431330397725,-0.16664980351924896
2024-05-13 17:28:30.009580,0.3310578816883429,0.20737513533088592,177.27204111483158,0.0028867791406810284,-0.0014508577296510339,-0.9999019503593445,0.0011657729046419263,-0.0023853385355323553,-0.16575545072555542
2024-05-13 17:28:30.040221,0.3310972886782027,0.2098530532565725,177.08436117681796,0.005615188740193844,-0.0035043624229729176,-1.0043416023254395,0.0026726655196398497,0.00010118958016391844,-0.16469347476959229
2024-05-13 17:28:30.055204,0.3344041407731202,0.2137857881352586,176.88272033214085,0.011083155870437622,-0.0063131265342235565,-0.9978986382484436,0.0029191458597779274,-0.0008978697587735951,-0.16848066449165344
2024-05-13 17:28:30.076224,0.33697629396501183,0.21423671402261166,176.68456288394046,0.011306090280413628,-0.003337371628731489,-0.9983978271484375,0.002642969600856304,-0.001679008943028748,-0.17042124271392822
2024-05-13 17:28:30.100249,0.33720627924097085,0.2165598721347019,176.48462958655583,0.010359123349189758,-0.004808997735381126,-1.0043448209762573,0.001119379885494709,-0.0015456225955858827,-0.17024022340774536
2024-05-13 17:28:30.117109,0.33648150545658256,0.2186571537565057,176.2791228548085,0.007134787272661924,-0.006357911974191666,-1.002217411994934,-0.00032762845512479544,-0.0008638661820441484,-0.17568127810955048
2024-05-13 17:28:30.136248,0.3320684828812403,0.21800941970347842,176.08030970844774,0.007574176881462336,-0.002508931327611208,-0.9994885325431824,-0.0017340590711683035,-0.0031392944511026144,-0.1784742921590805
2024-05-13 17:28:30.160239,0.32860016084547544,0.21829778175249992,175.9006074313847,0.00448601134121418,0.0019792583771049976,-1.0010793209075928,0.000530725228600204,-0.0006780687835998833,-0.17423968017101288
2024-05-13 17:28:30.169826,0.3257680869391531,0.2210980792709258,175.71851458811219,0.005359238479286432,0.0005395367043092847,-1.0032382011413574,0.0007758673746138811,0.00016165507258847356,-0.1694759726524353
2024-05-13 17:28:30.196222,0.32995670044766345,0.2229418434806458,175.52164121547574,0.011777271516621113,-0.004152662120759487,-0.9964255094528198,0.0037488178350031376,-0.0022692042402923107,-0.17009881138801575
2024-05-13 17:28:30.219378,0.3327479799819508,0.22426043017621528,175.32121614447087,0.013499041087925434,-0.0034702036064118147,-1.0011066198349,0.002576232887804508,-0.003319286275655031,-0.16971935331821442
2024-05-13 17:28:30.229848,0.3339578039191158,0.22488085681277573,175.12514873415648,0.012645835056900978,-0.00423736497759819,-1.0017962455749512,0.0025629496667534113,-0.0028463390190154314,-0.16874344646930695
2024-05-13 17:28:30.241964,0.33540425655842465,0.22246651834330844,174.92499687071845,0.00681615574285388,-0.004806768149137497,-1.0023412704467773,0.0023852139711380005,-0.00454251142218709,-0.17237617075443268
2024-05-13 17:28:30.286283,0.3350476726589824,0.21949125058825386,174.73011791331965,0.005271927919238806,-0.003516459371894598,-0.9977501630783081,0.0009451080695725977,-0.004553512204438448,-0.17465877532958984
2024-05-13 17:28:30.290425,0.3342520089815288,0.2173643003322428,174.54493782454225,-0.00034945530933327973,-0.0002978689153678715,-0.9991104602813721,0.0022927962709218264,-0.0013938492629677057,-0.1728157252073288
2024-05-13 17:28:30.304382,0.33394126205471963,0.21721511672777355,174.36038611316852,0.0034622270613908768,-0.00016661387053318322,-1.0030555725097656,0.0020019174553453922,-0.0015234444290399551,-0.16874444484710693
2024-05-13 17:28:30.340100,0.33682080043968826,0.22009506865935208,174.1609719101608,0.01450993213802576,-0.00574213033542037,-0.9975534677505493,0.0028065498918294907,-0.00253621325828135,-0.1701524704694748
2024-05-13 17:28:30.350163,0.34054781589026734,0.2225768952675129,173.95572472560193,0.014999044127762318,-0.006195060443133116,-1.0011645555496216,0.0032535071950405836,-0.0020672595128417015,-0.17128492891788483
2024-05-13 17:28:30.376250,0.3415978240730246,0.2224718010677446,173.75342818276448,0.009825167246162891,-0.005246754735708237,-1.0022436380386353,0.0023212116211652756,-0.002831303281709552,-0.17270547151565552
2024-05-13 17:28:30.398670,0.3410122153929753,0.22096855914074678,173.5495470360396,0.008759431540966034,-0.006491078995168209,-1.0038583278656006,0.0002996875555254519,-0.0033442929852753878,-0.17103548347949982
2024-05-13 17:28:30.418146,0.3393435681622295,0.21782208308919232,173.35861592798108,0.002114555798470974,-0.005396340973675251,-0.9993292093276978,0.00030727157718501985,-0.0030185191426426172,-0.16803278028964996
2024-05-13 17:28:30.435561,0.3342423506671555,0.21717829773927896,173.1769875375721,0.0012785260332748294,0.0009433312807232141,-1.00157630443573,-0.0006803375435993075,-0.0013913792790845037,-0.1687285304069519
2024-05-13 17:28:30.451834,0.33189559371787436,0.2188102460434492,172.99052337323076,0.0053913528099656105,0.0006075898418202996,-1.000697374343872,-0.00023468973813578486,-0.000801116053480655,-0.16861727833747864
2024-05-13 17:28:30.478047,0.3303103495001967,0.22508573580744964,172.8010539256546,0.017939137294888496,-0.0002480934199411422,-0.9992133975028992,0.0015922433231025934,-0.001543484628200531,-0.16580326855182648
2024-05-13 17:28:30.501605,0.33261615199488426,0.22846961429351495,172.60860651560031,0.014602424576878548,-0.003903038566932082,-0.999666154384613,0.002268900629132986,-0.0013125682016834617,-0.1644129455089569
2024-05-13 17:28:30.511305,0.3332296950814218,0.22508160034135063,172.40644657654627,0.00840893667191267,-0.0027841185219585896,-1.0008796453475952,0.0032261188607662916,-0.0043314783833920956,-0.17383414506912231
2024-05-13 17:28:30.523009,0.332521303078871,0.2227573483317761,172.2045735054374,0.00906324665993452,-0.0028009593952447176,-1.0023205280303955,0.001617360394448042,-0.0045655169524252415,-0.17447173595428467
2024-05-13 17:28:30.556119,0.3334499953625812,0.21913552046245785,172.01282277467845,0.0038954392075538635,-0.005034754518419504,-1.0021892786026,0.0021828985773026943,-0.0030941313598304987,-0.16408221423625946
2024-05-13 17:28:30.570500,0.33429181617778525,0.21536747051600577,171.82034804386748,-0.0005919861723668873,-0.004433219786733389,-1.0007017850875854,0.0016901390627026558,-0.003314068540930748,-0.16576434671878815
2024-05-13 17:28:30.598249,0.33460984686101397,0.21486721252015523,171.63169821899174,0.00808876845985651,-0.0014661028981208801,-0.999306321144104,0.002268834738060832,-0.0027890168130397797,-0.16520589590072632
2024-05-13 17:28:30.615300,0.33395174746231265,0.2171885563632472,171.4474880170765,0.012673590332269669,-0.002339452039450407,-1.00135338306427,0.0011329593835398555,-0.002056828700006008,-0.1603151261806488
2024-05-13 17:28:30.640260,0.33527651067660424,0.21959151563083554,171.25986272057625,0.013104994781315327,-0.00551971048116684,-1.0006635189056396,0.0016892069252207875,-0.003047315403819084,-0.15893733501434326
2024-05-13 17:28:30.650972,0.337963576465196,0.21470387494945672,171.0636723668568,0.006143155973404646,-0.005990756209939718,-0.9993427395820618,0.0020977589301764965,-0.004825220443308353,-0.16459357738494873
2024-05-13 17:28:30.676156,0.3372574789793195,0.2117754580232402,170.87349257960696,0.008240047842264175,-0.005768470000475645,-1.0013455152511597,0.00087900017388165,-0.004504447337239981,-0.16116972267627716
2024-05-13 17:28:30.700163,0.33512584630846726,0.20878875770545377,170.68547113213484,0.0019323989981785417,-0.005382052157074213,-1.001693844795227,-0.0010304069146513939,-0.0018331657629460096,-0.1603899896144867
2024-05-13 17:28:30.710502,0.3338326193582341,0.20745394931060554,170.49212213711013,0.0032625175081193447,-0.0016479047480970621,-1.0006911754608154,0.0017003953689709306,-0.0013577955542132258,-0.16692936420440674
2024-05-13 17:28:30.736142,0.33134725759356926,0.21137843993751998,170.30028944408116,0.011828028596937656,0.001589544932357967,-0.9995037317276001,0.00015559251187369227,-0.000906209519598633,-0.16719675064086914
2024-05-13 17:28:30.760255,0.3285641422697742,0.2139183098134127,170.1230050539843,0.012066013179719448,-0.00018198290490545332,-1.0010377168655396,-0.00012978140148334205,-0.0019962810911238194,-0.158413827419281
2024-05-13 17:28:30.773342,0.3255181180237865,0.2114337884821809,169.9388494935824,0.006735203322023153,-0.004123630467802286,-1.0030722618103027,-0.001062392140738666,-0.003489626571536064,-0.16130074858665466
2024-05-13 17:28:30.796084,0.326317250156678,0.213103889796168,169.74995378189655,0.011896967887878418,-0.0019498870242387056,-0.9990671873092651,0.001015117042697966,-0.001998164225369692,-0.16044099628925323
2024-05-13 17:28:30.820289,0.3251230876298365,0.21156044046651704,169.57777837329886,0.005169430281966925,0.0002675664145499468,-1.0006414651870728,0.002638163510710001,-0.0027645390946418047,-0.1560940444469452
2024-05-13 17:28:30.835370,0.3278944635659956,0.20857686175862472,169.38945639750327,0.00665698479861021,-0.002099673030897975,-1.0000941753387451,0.0039381845854222775,-0.004234264139086008,-0.1566825956106186
2024-05-13 17:28:30.855224,0.33371383809969934,0.20587350756968806,169.1931294400004,0.004353277385234833,-0.006103622727096081,-1.001354694366455,0.004465192556381226,-0.002733161672949791,-0.15627653896808624
2024-05-13 17:28:30.879242,0.3349936447954305,0.20964910807682416,169.0087279927884,0.012740609236061573,-0.005444403272122145,-1.001105785369873,0.0028656995855271816,-0.0016538641648367047,-0.1496303826570511
2024-05-13 17:28:30.884303,0.33473940701183263,0.20488655857483443,168.83379318776605,0.006474408321082592,-0.0043605961836874485,-0.9993320107460022,0.0006197559996508062,-0.005066822748631239,-0.14899921417236328
2024-05-13 17:28:30.915244,0.3315978668391706,0.2025575307689262,168.66372147743274,0.007378137670457363,0.002253155689686537,-1.001784324645996,0.0016578083159402013,-0.004429523833096027,-0.15728503465652466
2024-05-13 17:28:30.929804,0.3291766715001068,0.20438088445241548,168.48388259658628,0.0086556077003479,-0.0007422009948641062,-1.001488447189331,-0.0005777856567874551,-0.0018640640191733837,-0.1592375487089157
2024-05-13 17:28:30.958049,0.33052675443909507,0.20529135400486345,168.30148922499026,0.008400176651775837,-0.005676398053765297,-1.0000194311141968,0.0013975747860968113,-0.0013783482136204839,-0.15286189317703247
2024-05-13 17:28:30.976251,0.33656354776790204,0.20227573210481029,168.10793532429045,0.0013418999733403325,-0.008673182688653469,-1.0021432638168335,0.003661822760477662,-0.0022645392455160618,-0.15546220541000366
2024-05-13 17:28:30.991564,0.3362037355368599,0.20329141591894556,167.92319236761995,0.009032346308231354,-0.00325759407132864,-0.9988334774971008,0.0015031679067760706,-0.002053416334092617,-0.15388503670692444
2024-05-13 17:28:31.003244,0.3331372207233622,0.20437420100559092,167.74123612813082,0.009086615405976772,-0.004266184289008379,-1.0004689693450928,-0.0009966485667973757,-0.0022859785240143538,-0.14802701771259308
2024-05-13 17:28:31.036230,0.3299966143656257,0.20327442048729985,167.56620570046007,0.009210188873112202,-0.0007138419896364212,-1.0011112689971924,-0.0003913890686817467,-0.0034051043912768364,-0.14711961150169373
2024-05-13 17:28:31.054505,0.3293852590740567,0.20035630220569126,167.39364780126886,0.007220484782010317,-0.0018252383451908827,-1.0002682209014893,0.0006638881168328226,-0.004194305744022131,-0.1465209424495697
2024-05-13 17:28:31.077978,0.32237985954357723,0.20027774169002288,167.23379405393388,0.007072482258081436,0.00046625558752566576,-1.0012788772583008,-0.0025896490551531315,-0.0026494727935642004,-0.14344187080860138
2024-05-13 17:28:31.096159,0.31953396517635624,0.19748189980281336,167.07159072152442,0.004451456479728222,-0.004963880404829979,-0.9987406730651855,-0.0023173741064965725,-0.0033167297951877117,-0.1424151211977005
2024-05-13 17:28:31.117087,0.319107291796642,0.1941262225275008,166.8987186336314,0.004949701949954033,-0.0008111114148050547,-1.001416563987732,0.0020406912080943584,-0.0028197020292282104,-0.1467866599559784
2024-05-13 17:28:31.138137,0.31759675277301136,0.20000500103068516,166.72748579113917,0.012640831992030144,0.00237117032520473,-1.0002071857452393,0.0023477610666304827,-0.00035533105256035924,-0.1467069387435913
2024-05-13 17:28:31.155906,0.3206537159938416,0.2009086137135367,166.55442245794939,0.011776717379689217,-0.0027312934398651123,-0.9993951916694641,0.003875073743984103,-0.001973693957552314,-0.13990072906017303
2024-05-13 17:28:31.179444,0.3226730507497853,0.19635809356050826,166.37806697357968,0.0064297933131456375,-0.007211694493889809,-1.0023839473724365,0.002393244532868266,-0.005024755839258432,-0.13826344907283783
2024-05-13 17:28:31.197318,0.3242090162198184,0.19115721133244767,166.20336439498908,0.009130601771175861,-0.005833122879266739,-1.0016372203826904,0.0014105262234807014,-0.005477304104715586,-0.1379934847354889
2024-05-13 17:28:31.215387,0.3186596476017417,0.1905570618199857,166.05700710145405,0.004750397987663746,0.002710560569539666,-1.0016789436340332,0.0005752498982474208,-0.0026996606029570103,-0.13575047254562378
2024-05-13 17:28:31.239618,0.3202410498380112,0.18905903591635792,165.9012651279994,0.006763595622032881,-0.0017244683112949133,-1.0018994808197021,0.001992475241422653,-0.002616414101794362,-0.1327432543039322
2024-05-13 17:28:31.258128,0.3255170241263023,0.18652330150656424,165.7320540215015,0.005153455771505833,-0.006271976977586746,-1.0004947185516357,0.003977423999458551,-0.003866276005282998,-0.13666898012161255
2024-05-13 17:28:31.273308,0.32681934910195326,0.18814081570002755,165.55057589525427,0.008252809755504131,-0.0068835546262562275,-1.0001322031021118,0.0007041047792881727,-0.0011174522805958986,-0.13880188763141632
2024-05-13 17:28:31.300237,0.32371105274064216,0.18858317717049167,165.381269166108,0.00474156579002738,-0.004887225106358528,-0.9988005757331848,-0.0007497222977690399,-0.0017633677925914526,-0.13348209857940674
2024-05-13 17:28:31.317646,0.3199255004344419,0.1923627397209549,165.233586815874,0.009571690112352371,0.0030069511849433184,-0.999804675579071,0.000807790202088654,-0.0011363279772922397,-0.13092128932476044
2024-05-13 17:28:31.335625,0.3194711327720774,0.19333838955520893,165.08613669207176,0.00955017190426588,0.0013498531188815832,-1.0003939867019653,0.001444328809157014,-0.0017236588755622506,-0.1309322714805603
2024-05-13 17:28:31.359314,0.31929021280035136,0.19442725777908382,164.93105041677745,0.010022098198533058,-0.003752235323190689,-1.0006202459335327,0.0012964532943442464,-0.0029696719720959663,-0.1282922327518463
2024-05-13 17:28:31.378185,0.3223500308268113,0.18732898368414808,164.76627893324005,0.0033517740666866302,-0.009624294936656952,-1.0014622211456299,0.0006024004542268813,-0.0052969371899962425,-0.12559357285499573
2024-05-13 17:28:31.398335,0.32221678877714316,0.17985188755432785,164.60914360119475,0.0017833260353654623,-0.004895266145467758,-1.0014790296554565,0.00105265062302351,-0.00619349954649806,-0.12554045021533966
2024-05-13 17:28:31.420136,0.3160491546370481,0.17987283168908746,164.46897445904773,0.00451187789440155,0.0037686920259147882,-1.0016472339630127,-0.0010107181733474135,-0.0024202552158385515,-0.12378565967082977
2024-05-13 17:28:31.438071,0.31367406307488194,0.18256437978932205,164.32730267528333,0.00955226644873619,0.0017780160997062922,-0.9988787770271301,0.002311817603185773,-0.0009395019733346999,-0.11779940873384476
2024-05-13 17:28:31.456057,0.314017333441528,0.1826169802500591,164.1703995696698,0.009448039345443249,-0.0056031555868685246,-0.9990880489349365,0.00042913196375593543,-0.002667373511940241,-0.11913186311721802
2024-05-13 17:28:31.473373,0.31353559166163053,0.17934319854372058,164.01663835107448,0.010919325053691864,-0.005235489923506975,-1.001081109046936,-0.0008404230466112494,-0.004605380352586508,-0.12127646803855896
2024-05-13 17:28:31.498112,0.30660820569807734,0.1771897146036096,163.87742543541128,0.005924306809902191,-0.00019246997544541955,-0.9999687075614929,-0.0031365463510155678,-0.0033521833829581738,-0.11977895349264145
2024-05-13 17:28:31.516102,0.3032141619695363,0.17486831739966474,163.7459716146452,0.0030472269281744957,0.002383133163675666,-1.0002189874649048,-0.00022001175966579467,-0.0034581837244331837,-0.11785923689603806
2024-05-13 17:28:31.525146,0.3052190626147731,0.17283353467680918,163.60643084990184,0.0030852179042994976,-0.0005335307214409113,-1.0025877952575684,0.0031939069740474224,-0.001898553571663797,-0.11320270597934723
2024-05-13 17:28:31.558163,0.31025776787068554,0.17418133643933634,163.45247838600977,0.010765752755105495,-0.006351339165121317,-1.0010576248168945,0.0037080321926623583,-0.0017526100855320692,-0.11239103972911835
2024-05-13 17:28:31.572786,0.3126532699590824,0.17606182625605835,163.29815709190248,0.011468445882201195,-0.008959687314927578,-1.0009859800338745,0.0004606396541930735,-0.0023743126075714827,-0.11110614240169525
2024-05-13 17:28:31.585368,0.310766110035749,0.1731410399318052,163.1550919495474,0.009980197995901108,-0.004927643574774265,-1.0000938177108765,-0.0017035675700753927,-0.003979498986154795,-0.11012065410614014
2024-05-13 17:28:31.618414,0.3068539324256391,0.1696413417145406,163.0289520159556,0.0010650844778865576,0.0010300015565007925,-1.0010184049606323,0.0003362438583280891,-0.002262202324345708,-0.1093280017375946
2024-05-13 17:28:31.633147,0.3038186870719353,0.16941139645922124,162.90801668651136,0.0062936716713011265,0.0031117501202970743,-1.001375675201416,0.0006668791174888611,-0.0018015645910054445,-0.1088775172829628
2024-05-13 17:28:31.660174,0.30288962126225494,0.17139011026590187,162.7831198473485,0.0089705940335989,-0.00045686541125178337,-1.0020568370819092,0.0014972941717132926,-0.0006943386979401112,-0.1047050729393959
2024-05-13 17:28:31.677313,0.305322876154072,0.1729214200015202,162.65098300766545,0.007929915562272072,-0.005906679667532444,-0.9994263648986816,0.002173480810597539,-0.001702941139228642,-0.10199610888957977
2024-05-13 17:28:31.680737,0.30742094484845595,0.17114759852972675,162.5189554510091,0.005538566503673792,-0.005033646710216999,-0.9997117519378662,0.002199346898123622,-0.0024635535664856434,-0.10111362487077713
2024-05-13 17:28:31.720404,0.3057140645666139,0.16815433482703476,162.39330729103756,0.006037632469087839,-0.0006913195829838514,-1.0010559558868408,0.001014692592434585,-0.0028911747504025698,-0.09981205314397812
2024-05-13 17:28:31.728744,0.3052751715515877,0.16818226923352306,162.2745849428844,0.005786428693681955,-0.0001917797198984772,-0.9993403553962708,0.0026467053685337305,-0.0015873725060373545,-0.09670893102884293
2024-05-13 17:28:31.742070,0.306205011093635,0.16831611159278623,162.1516278774458,0.005994361359626055,-0.0026513058692216873,-0.9999818801879883,0.0016329108038917184,-0.0018270424334332347,-0.09429815411567688
2024-05-13 17:28:31.779891,0.30597953480974527,0.17115376170823562,162.0239853022366,0.01065773330628872,-0.003287205472588539,-1.0021017789840698,0.000753197236917913,-0.0006745705613866448,-0.09222760051488876
2024-05-13 17:28:31.789259,0.30481490751497875,0.1714550637640831,161.90303631241403,0.009356744587421417,-0.0017731556436046958,-1.0018062591552734,9.658536873757839e-05,-0.0026733034756034613,-0.09063506126403809
2024-05-13 17:28:31.816262,0.30285045439623315,0.1672974128904626,161.79226430445476,0.006650150287896395,0.0018389943288639188,-0.9996746778488159,0.00047971689491532743,-0.005065593868494034,-0.09179861843585968
2024-05-13 17:28:31.836494,0.30346210317249306,0.16248343686649944,161.67598716402446,0.00555555010214448,-0.004322641063481569,-1.0004650354385376,0.0010919141350314021,-0.005656723398715258,-0.08984830975532532
2024-05-13 17:28:31.858200,0.304537911327623,0.1585326660195363,161.55990126889094,0.00360048352740705,-0.006474773865193129,-1.0014564990997314,0.0006166076636873186,-0.00408676965162158,-0.08562690764665604
2024-05-13 17:28:31.875649,0.3051211454497186,0.15534539559594687,161.44489454364626,0.003923576790839434,-0.005996696185320616,-1.0009626150131226,0.00013642589328810573,-0.003953282721340656,-0.08440510183572769
2024-05-13 17:28:31.898265,0.30344203949180615,0.15255331564886615,161.33980525307643,0.009762493893504143,0.00181375234387815,-1.000878095626831,0.0007827177178114653,-0.004341708961874247,-0.08067207783460617
2024-05-13 17:28:31.918210,0.30004914302160235,0.1498682108716181,161.23874577411692,0.0051995981484651566,0.0012240761425346136,-1.0021934509277344,-7.884007936809212e-05,-0.0035179825499653816,-0.07928774505853653
2024-05-13 17:28:31.936167,0.29966201003388016,0.15157212962612474,161.11785142580771,0.009998058900237083,-0.004438481293618679,-1.0022028684616089,-0.0003574889269657433,-0.0020279549062252045,-0.07708156108856201
2024-05-13 17:28:31.951586,0.3027317798594042,0.15114256142014118,161.0072023612535,0.0051130191422998905,-0.0074520958587527275,-1.0002350807189941,0.0014902318362146616,-0.000581100641284138,-0.07684023678302765
2024-05-13 17:28:31.978268,0.29887208264811227,0.14913480596927478,160.91223541103363,0.0036960483994334936,-0.0014672467950731516,-1.0018293857574463,-0.0010885011870414019,-0.002954895608127117,-0.07826154679059982
2024-05-13 17:28:31.995700,0.2926107201699147,0.14736684085108606,160.82893442391617,0.006870283745229244,0.002935463562607765,-0.998857319355011,-0.0020504065323621035,-0.003167848102748394,-0.0764317736029625
2024-05-13 17:28:32.012320,0.2890637709174153,0.14836056667425682,160.7386803042236,0.008537565357983112,-0.0010755343828350306,-0.9998006224632263,-0.0014829847496002913,-0.00228514545597136,-0.07314440608024597
2024-05-13 17:28:32.023002,0.28772876241936873,0.14816267795131155,160.63749788185905,0.00776189099997282,-0.0051660179160535336,-1.0008070468902588,-0.00035992078483104706,-0.003308946266770363,-0.07141097635030746
2024-05-13 17:28:32.056170,0.288566821294444,0.14808938681986614,160.54444338460678,0.005475340411067009,-0.0021732626482844353,-0.9982606768608093,0.00033242107019759715,-0.0014868438011035323,-0.06949305534362793
2024-05-13 17:28:32.085730,0.2876596867953017,0.14514951065049134,160.4624401334316,0.0026814895682036877,-0.0008797282935120165,-1.0033230781555176,0.0015180041082203388,-0.0020484765991568565,-0.06664169579744339
2024-05-13 17:28:32.098159,0.2884854459937856,0.14570583756251682,160.37296465530446,0.007624434307217598,-0.0009362486889585853,-0.9989603757858276,0.0018295780755579472,-0.002639788668602705,-0.06568502634763718
2024-05-13 17:28:32.115318,0.2897680541342935,0.14494058957121095,160.2811395921028,0.008410397917032242,-0.0010554215405136347,-1.0030584335327148,0.0029322137124836445,-0.0018885803874582052,-0.06304846704006195
2024-05-13 17:28:32.140378,0.2911711510806287,0.14663678434226163,160.1872791325285,0.008867943659424782,-0.003505739849060774,-1.000370740890503,0.001977680716663599,-0.00145252444781363,-0.06123610585927963
2024-05-13 17:28:32.158140,0.29220242960402126,0.1470052677118985,160.0997434281256,0.007851922884583473,-0.003799754660576582,-1.001671314239502,0.0013616685755550861,-0.002075426746159792,-0.05892869457602501
2024-05-13 17:28:32.167775,0.29332949085835275,0.1446800018461191,160.0210050073737,0.0024532305542379618,-0.005481908097863197,-1.0003178119659424,0.0008947387104853988,-0.0018145870417356491,-0.05518559366464615
2024-05-13 17:28:32.199611,0.2916072693313046,0.14195602368754015,159.95166492691973,0.0048790546134114265,-0.0010210021864622831,-1.000952959060669,-1.7749698599800467e-06,-0.0027247662656009197,-0.055059902369976044
2024-05-13 17:28:32.217420,0.28992802997125994,0.14057463126811828,159.88982439417444,0.006537937559187412,0.001795938704162836,-1.0006757974624634,0.0011216404382139444,-0.002866690047085285,-0.05141322687268257
2024-05-13 17:28:32.229018,0.2880986598516072,0.14144628080008828,159.83031978612527,0.011081705801188946,0.0016515834722667933,-1.0021936893463135,0.0008231856627389789,-0.002927422756329179,-0.04845457896590233
2024-05-13 17:28:32.259528,0.28838870276749473,0.13803074598804554,159.76211351707354,0.007408986799418926,-0.0031973065342754126,-1.0007402896881104,0.0010913221631199121,-0.005058492533862591,-0.04798772558569908
2024-05-13 17:28:32.277635,0.28726815153721597,0.13411964893520667,159.69748626714687,0.005904045887291431,-0.0022160327062010765,-1.001166820526123,0.0003397808177396655,-0.005040477495640516,-0.046287499368190765
2024-05-13 17:28:32.290446,0.28655220897398115,0.12929864261887516,159.6334327531105,0.0010875295847654343,-0.004249596036970615,-1.0009825229644775,-0.000784025527536869,-0.00290696625597775,-0.04408711940050125
2024-05-13 17:28:32.320264,0.2864750225002747,0.12768765178967773,159.58164625882347,0.005742179695516825,-0.0005524230655282736,-1.0005767345428467,0.0009919765871018171,-0.0033542311284691095,-0.04086674749851227
2024-05-13 17:28:32.335431,0.28773108361646943,0.12450292934681384,159.52854836821578,0.005215468816459179,-0.0008699840400367975,-1.0018538236618042,0.002421002136543393,-0.0034832286182790995,-0.03962400183081627
2024-05-13 17:28:32.356174,0.2877201446416269,0.12399372006789088,159.47128406221438,0.0061401380226016045,-0.001329338294453919,-1.0007468461990356,0.0024552596732974052,-0.0028823830652981997,-0.03810307756066322
2024-05-13 17:28:32.380001,0.2903438177369845,0.12465342029217891,159.41288594481077,0.008779292926192284,-0.0018901295261457562,-1.0018718242645264,0.0035456642508506775,-0.002142231445759535,-0.034927260130643845
2024-05-13 17:28:32.397968,0.29198679839748987,0.12286130938805714,159.36021152593165,0.0038346799556165934,-0.003539088647812605,-1.0007221698760986,0.0015140804462134838,-0.001360307796858251,-0.032658036798238754
2024-05-13 17:28:32.416292,0.29100290431146425,0.12331601055575223,159.31112978655594,0.005970617290586233,-0.0017730998806655407,-1.0012868642807007,0.00011597838602028787,-0.00015455906395800412,-0.031237738206982613
2024-05-13 17:28:32.440288,0.2890987756369116,0.12321321087265824,159.2641517454446,0.005372327286750078,-0.001851509790867567,-1.0001885890960693,-0.0007447160896845162,-9.689932630863041e-05,-0.029337402433156967
2024-05-13 17:28:32.448833,0.28839958838148444,0.12413963532012055,159.2162447986061,0.0080032953992486,-0.0031562468502670527,-1.000558853149414,-0.00047049549175426364,-0.0017277434235438704,-0.026787681505084038
2024-05-13 17:28:32.500223,0.28516149174551664,0.12303796049155188,159.14165913286956,0.0058539677411317825,-0.0017648449866101146,-1.0004020929336548,0.000433791137766093,-0.002008593175560236,-0.022128093987703323
2024-05-13 17:28:32.509494,0.28470490960775713,0.12330772628334094,159.10797263988306,0.0048838392831385136,-0.0021072831004858017,-1.0015779733657837,0.000584946246817708,-0.0010761321755126119,-0.021011989563703537
2024-05-13 17:28:32.536047,0.28550369489510485,0.12195109329966038,159.071772637282,0.006501957308501005,-0.0029564043506979942,-1.000752329826355,0.0012710921000689268,-0.002711914712563157,-0.019481830298900604
2024-05-13 17:28:32.555202,0.28532128081949787,0.12335864587721192,159.0332367099848,0.007965091615915298,-0.0019125472754240036,-1.001936674118042,0.0008838988724164665,-0.001062846276909113,-0.016547059640288353
2024-05-13 17:28:32.578035,0.28495866714367896,0.12297578175772096,159.0039898399588,0.005995894316583872,-0.0016124906251206994,-1.000841736793518,0.000849439762532711,-0.0015496487030759454,-0.015900610014796257
2024-05-13 17:28:32.596178,0.28499089709882497,0.12234625709574264,158.9769286304672,0.00666009820997715,-0.0008934678044170141,-1.0015840530395508,0.002036744263023138,-0.0009773620404303074,-0.012988907285034657
2024-05-13 17:28:32.616863,0.2851976437233501,0.12139340568588619,158.9538835722076,0.004707731772214174,-0.002415550174191594,-1.0013669729232788,0.0012236079201102257,-0.001635771943256259,-0.010014434345066547
2024-05-13 17:28:32.637925,0.28484172683456893,0.12061453733687995,158.93336568394088,0.006324504502117634,-0.0025295796804130077,-1.0009746551513672,0.000634883064776659,-0.002144280355423689,-0.008363599888980389
2024-05-13 17:28:32.655900,0.2852121845557628,0.11969382250067695,158.9127931541608,0.0054997773841023445,-0.0036878669634461403,-1.001739263534546,0.00043461029417812824,-0.0028128232806921005,-0.006967740133404732
2024-05-13 17:28:32.679167,0.2840530267484176,0.11782939430067503,158.90276643645922,0.0060327304527163506,-0.001245329505763948,-1.0010590553283691,0.0005135306273587048,-0.003408540040254593,-0.0029498126823455095
2024-05-13 17:28:32.697827,0.28275358325882266,0.11686005438727534,158.8933407754046,0.004949251189827919,-0.0016581674572080374,-1.0010480880737305,0.0003525642096064985,-0.0017607465852051973,-0.0013217137893661857
2024-05-13 17:28:32.715407,0.2824825101261378,0.11711551947048969,158.88373752943156,0.0053658741526305676,-0.0018162975320592523,-1.0007541179656982,0.00038092394242994487,-0.0020888533908873796,-0.00011346713290549815
2024-05-13 17:28:32.731160,0.2820725653738048,0.1168633761003678,158.8740523211885,0.006568885408341885,-0.002034537959843874,-1.0012470483779907,0.0010932814329862595,-0.0014883100520819426,0.0005698798922821879
2024-05-13 17:28:32.743035,0.2817009603942738,0.11638236803219758,158.8659790375895,0.0063691879622638226,-0.0018817838281393051,-1.0012178421020508,0.0004379256861284375,-0.002156303497031331,0.0011400198563933372
2024-05-13 17:28:32.775886,0.28066730731292755,0.11590855033895439,158.85801503701728,0.006483443081378937,-0.0015727679710835218,-1.0004788637161255,0.0008445458952337503,-0.0023798358161002398,0.0014628998469561338
2024-05-13 17:28:32.790548,0.28087143925566105,0.11540559762003287,158.8449830360809,0.005800741259008646,-0.0011773419100791216,-1.001461148262024,0.001957761822268367,-0.001736234873533249,0.000597983249463141
2024-05-13 17:28:32.818274,0.2800142505148244,0.11394605823155254,158.83124069547083,0.005888426676392555,-0.0023309264797717333,-1.0008201599121094,0.00020675630366895348,-0.00226367125287652,0.000819693086668849
2024-05-13 17:28:32.835363,0.28021715515794143,0.1149583136108896,158.82021677015044,0.006587526760995388,-0.0015572498086839914,-1.001090407371521,0.0016034243162721395,-0.0012877535773441195,0.00042903918074443936
2024-05-13 17:28:32.859450,0.27891146844855824,0.11403186248300083,158.81633722270186,0.006123540922999382,0.0005449847085401416,-0.9999813437461853,0.0002512307255528867,-0.0020170588977634907,0.0025719115510582924
2024-05-13 17:28:32.878155,0.2776577018490378,0.1114671598001941,158.81267624130675,0.006581123918294907,-0.0006251395680010319,-1.0008764266967773,0.0004490925930440426,-0.004106887616217136,0.0024324117694050074
2024-05-13 17:28:32.888509,0.27591152129904173,0.10861608943024269,158.81288114698185,0.0053532845340669155,0.00030227721435949206,-1.000407338142395,0.00034662996768020093,-0.0035463024396449327,0.0028294336516410112
2024-05-13 17:28:32.919608,0.27432496974046827,0.10731697277587171,158.8109550336359,0.0062243519350886345,-0.0006903628818690777,-0.9995689392089844,-0.00031458292505703866,-0.0031230163294821978,0.0061343046836555
2024-05-13 17:28:32.938160,0.273901471331501,0.1060900600255685,158.81151510914785,0.005274682771414518,-0.0011668107472360134,-1.0010747909545898,0.0005736535531468689,-0.0012551016407087445,0.009133072569966316
2024-05-13 17:28:32.948192,0.2743253432664385,0.10763626410924998,158.81782620394094,0.004520613234490156,-0.0016282692085951567,-0.9996029734611511,0.0007814073469489813,0.0007641621632501483,0.011742989532649517
2024-05-13 17:28:32.986319,0.27412940221462373,0.10913734492170572,158.83057133693217,0.005347137805074453,-0.00017630832735449076,-1.0001987218856812,0.00137619161978364,0.00013922457583248615,0.013488559052348137
2024-05-13 17:28:32.997481,0.2748398219295844,0.11261697278817683,158.8439311869487,0.005162492860108614,-0.0016470369882881641,-0.9997155666351318,0.0014184152241796255,0.0026309224776923656,0.01719893142580986
2024-05-13 17:28:33.009617,0.27477031941869423,0.11821457961726672,158.86084273533368,0.0044334703125059605,-0.00042981316801160574,-1.0011450052261353,0.000944391475059092,0.0036158927250653505,0.02060217224061489
2024-05-13 17:28:33.040273,0.27503413547538597,0.12519156449358185,158.8738883966484,0.006033013109117746,-0.0004861479392275214,-1.0004619359970093,0.001238612225279212,0.005486929789185524,0.021572455763816833
2024-05-13 17:28:33.054856,0.27632119924711024,0.13489826382016168,158.89179715265217,0.006675682961940765,-0.0017801898065954447,-1.0007697343826294,0.0018720843363553286,0.006449960172176361,0.02546478621661663
2024-05-13 17:28:33.076203,0.2772604569796928,0.1433448332655138,158.91790213565994,0.006804656237363815,-0.0021886618342250586,-1.000769019126892,0.0014446404529735446,0.005479361861944199,0.029632503166794777
2024-05-13 17:28:33.100286,0.27811177602671144,0.14980375096132612,158.93612508036554,0.004319329280406237,-0.005562851671129465,-1.0026674270629883,0.0007835138821974397,0.004954434931278229,0.031417664140462875
2024-05-13 17:28:33.117112,0.2780151662025528,0.156220767047406,158.95657466674058,0.0072677480056881905,-0.002970201661810279,-1.00249445438385,0.0009294827468693256,0.004097556695342064,0.03268492594361305
2024-05-13 17:28:33.136253,0.2764846969003674,0.1637594416014621,158.98164146099452,0.0068423268385231495,-0.0029011215083301067,-1.0024175643920898,-0.0006290534511208534,0.00449208403006196,0.03606937825679779
2024-05-13 17:28:33.160282,0.27562209203296245,0.17083327642577392,159.0051509721177,0.008111268281936646,-0.0027434322983026505,-1.0025583505630493,-0.0005313359433785081,0.00397478649392724,0.03683486953377724
2024-05-13 17:28:33.169931,0.275389385353506,0.17399209217455938,159.03458908744045,0.009738548658788204,-0.0017887188587337732,-1.00123929977417,0.0010107867419719696,0.0019748236518353224,0.039366722106933594
2024-05-13 17:28:33.201355,0.27660764030542767,0.17614612306341249,159.06854878799376,0.008217962458729744,-0.0031404460314661264,-1.0015660524368286,0.0019383684266358614,0.0012939576990902424,0.0436474047601223
2024-05-13 17:28:33.220154,0.2786823369462455,0.17646627484054359,159.10565037556526,0.006423529237508774,-0.0034237238578498363,-1.0002151727676392,0.0017613136442378163,0.000474945263704285,0.04666195437312126
2024-05-13 17:28:33.229704,0.28053294468534873,0.17944647847449058,159.14038871768395,0.007186417933553457,-0.004365998785942793,-1.0028902292251587,0.0004824045463465154,0.0011363700032234192,0.04889423027634621
2024-05-13 17:28:33.241987,0.2818587484362717,0.18218983996288204,159.18574117377284,0.007723708171397448,-0.0027999014127999544,-1.0001102685928345,0.0012913232203572989,0.0013580915983766317,0.0533730573952198
2024-05-13 17:28:33.279690,0.28061309268639056,0.18356108048004144,159.24233612123555,0.007806779351085424,-0.0007236631936393678,-1.003006100654602,0.0009723221883177757,0.0005817287019453943,0.05687244236469269
2024-05-13 17:28:33.289520,0.2823903025723426,0.18815382240791967,159.29072118131594,0.01029143389314413,-0.0017015357734635472,-1.001368761062622,0.001482655294239521,0.0015181545168161392,0.05732836201786995
2024-05-13 17:28:33.316278,0.2804300116001225,0.18956620414265782,159.34508948710922,0.006357250269502401,-0.002435788745060563,-1.0024549961090088,-0.00041414808947592974,0.0005960013950243592,0.05737488716840744
2024-05-13 17:28:33.336507,0.28081933238281326,0.19114461817116546,159.40195764213877,0.0068785157054662704,-0.00431836536154151,-1.0003536939620972,-0.0004326300404500216,-9.432763181393966e-05,0.060149870812892914
2024-05-13 17:28:33.342814,0.2814875169827109,0.1927876121718841,159.4593039104102,0.00839349813759327,-0.004117478616535664,-1.0015945434570312,0.00037495687138289213,-0.00043257366633042693,0.06368689239025116
2024-05-13 17:28:33.375529,0.2810485439264053,0.1940986483067695,159.51923199018788,0.009304068051278591,-0.002442851196974516,-1.0021897554397583,0.0005436826613731682,-0.0007347631617449224,0.06532122194766998
2024-05-13 17:28:33.397936,0.27975694448218535,0.19395121227023246,159.58739727810462,0.007000136189162731,0.00024371716426685452,-1.0008026361465454,-0.00040411806548945606,-0.0015678274212405086,0.06884343177080154
2024-05-13 17:28:33.418047,0.27971478940840167,0.1944080078514035,159.65496150937437,0.012019112706184387,-0.0009399920818395913,-1.0018612146377563,0.0007672710344195366,-0.0025562166702002287,0.07170461118221283
2024-05-13 17:28:33.436197,0.28058542508416673,0.19127471193051304,159.7244928351251,0.00475504482164979,-0.0016911139246076345,-1.0008530616760254,0.002020439365878701,-0.001890972605906427,0.07268332690000534
2024-05-13 17:28:33.451589,0.28221322458202475,0.1879524385491101,159.79782174605435,0.004086900968104601,-0.0012694651959463954,-0.9998303055763245,0.0019189941231161356,-0.0033408983144909143,0.07296320796012878
2024-05-13 17:28:33.478080,0.2845866085968984,0.1890579153384472,159.87005782671642,0.007021714933216572,-0.00039707424002699554,-1.0005453824996948,0.002920787548646331,-0.00011452277249190956,0.07583717256784439
2024-05-13 17:28:33.495633,0.28451147651602826,0.19026029543663392,159.94995737962722,0.005917418282479048,-0.0007304378086701035,-1.0014897584915161,0.0015645757084712386,-0.00013462304195854813,0.07673897594213486
2024-05-13 17:28:33.510947,0.28762121362036747,0.19017367743217906,160.02429715855365,0.010855475440621376,-0.005344033241271973,-1.0012089014053345,0.0011156926630064845,-0.0019491370767354965,0.07991790026426315
2024-05-13 17:28:33.523204,0.28913439400621616,0.19139145213642472,160.10145097541812,0.010065135546028614,-0.004116262309253216,-1.001567006111145,0.0013477012980729342,-0.0013105149846524,0.07921172678470612
2024-05-13 17:28:33.556167,0.2898214416676107,0.19063516876840447,160.18936917041452,0.0078676613047719,-0.0019099334022030234,-1.0010247230529785,0.0007532578310929239,-0.0009675984620116651,0.08095978200435638
2024-05-13 17:28:33.572455,0.29087886700891974,0.18808806849694507,160.28633053587203,0.005815362557768822,-0.003468355629593134,-0.9983882308006287,0.000647742475848645,-0.0007386006182059646,0.08579851686954498
2024-05-13 17:28:33.597274,0.29169547482113295,0.1894149261247126,160.38150239176696,0.007680387236177921,-0.0038437694311141968,-1.0001718997955322,0.0001507203560322523,-0.00044815632281824946,0.08822734653949738
2024-05-13 17:28:33.615336,0.291638085223849,0.18842160050793855,160.46685243563545,0.0050781904719769955,-0.005014582071453333,-1.0017093420028687,-0.000625529617536813,-0.000292764394544065,0.08823508769273758
2024-05-13 17:28:33.640281,0.2885288817280387,0.19217792440696788,160.55367780036465,0.01101821567863226,-0.0018650342244654894,-1.001988410949707,-0.0015503475442528725,0.0008484881836920977,0.08750008046627045
2024-05-13 17:28:33.650041,0.2883667981373831,0.19060433953564687,160.64606293907823,0.006830460857599974,-0.001981872133910656,-1.0016570091247559,0.0008685218635946512,-0.0015437689144164324,0.0908861830830574
2024-05-13 17:28:33.662325,0.2882189885748758,0.1884050986641821,160.73503298320682,0.007191662210971117,-0.0013385358033701777,-0.9992529153823853,0.0009374140063300729,-0.002682007383555174,0.09333349019289017
2024-05-13 17:28:33.700279,0.29131415816637585,0.18742328565141922,160.83127034861232,0.005902628414332867,-0.002313501201570034,-1.00019371509552,0.003525387030094862,-0.0008551205974072218,0.09540242701768875
2024-05-13 17:28:33.711428,0.2930191174575138,0.18925425659665865,160.93772567701612,0.007119690999388695,-0.0035567001905292273,-1.0016893148422241,0.0014024812262505293,0.0002625843044370413,0.10048811137676239
2024-05-13 17:28:33.736261,0.28998798088948263,0.19100038378580184,161.05110681723835,0.00912276841700077,-0.002395382383838296,-1.0022237300872803,-0.00026969710597768426,-0.00016603671247139573,0.10214290022850037
2024-05-13 17:28:33.760287,0.2902987278162918,0.19342197933126223,161.16642773118483,0.007502343505620956,-0.0006753162597306073,-1.000097393989563,0.000553710910025984,0.0012065668124705553,0.09941168874502182
2024-05-13 17:28:33.772980,0.2911106932343035,0.19944167050671777,161.2866527209554,0.011170197278261185,0.0018172801937907934,-1.0010218620300293,0.0020407994743436575,0.0028065810911357403,0.10120997577905655
2024-05-13 17:28:33.796200,0.29281322460663495,0.20168966985751144,161.389925181206,0.005465568974614143,-0.005728339776396751,-1.0015305280685425,0.0003728182928171009,0.001720591215416789,0.10288172215223312
2024-05-13 17:28:33.820461,0.2922202521288868,0.20487401877440511,161.49870277392762,0.011337877251207829,-0.0017515815561637282,-0.9999544024467468,0.0006817669491283596,0.0004566336574498564,0.1031050980091095
