sTimestamp,sRoll,sPitch,sYaw,sAcc_x,sAcc_y,sAcc_z,sGyro_x,sGyro_y,sGyro_z
2024-06-15 18:46:14.297558,-1.4060038321572335,0.6562141597686774,-14.65246673206444,0.02133752591907978,0.03044111654162407,-0.9963459372520447,-0.04535289481282234,0.07820986956357956,0.01031754445284605
2024-06-15 18:46:14.318577,-1.4558968699402957,0.7400811454527648,-14.583633793156343,0.02605379931628704,0.032242823392152786,-0.9979315996170044,-0.042424872517585754,0.07012998312711716,0.010582834482192993
2024-06-15 18:46:14.330876,-1.499998867802539,0.8128247945475162,-14.51586807130606,0.0208139531314373,0.03258128836750984,-0.9953231811523438,-0.037652019411325455,0.06269653886556625,0.01003815233707428
2024-06-15 18:46:14.360418,-1.5406884391224207,0.8775903024440168,-14.452413906369351,0.014297415502369404,0.03336751088500023,-0.9980434775352478,-0.03395858779549599,0.057395752519369125,0.009118788875639439
2024-06-15 18:46:14.376520,-1.578082124002654,0.9399088417095073,-14.38829209044127,0.022341454401612282,0.03467456251382828,-0.9979422688484192,-0.030928760766983032,0.052805330604314804,0.008071761578321457
2024-06-15 18:46:14.402635,-1.6095697229632357,0.9998604002624711,-14.324638142471336,0.03204726427793503,0.03415476158261299,-0.9965320825576782,-0.02588333562016487,0.046807482838630676,0.007596607320010662
2024-06-15 18:46:14.420537,-1.636825913011289,1.04689735175541,-14.259694142521917,0.02649971842765808,0.03317878395318985,-0.9993020296096802,-0.02248847857117653,0.03869953006505966,0.007822536863386631
2024-06-15 18:46:14.437938,-1.662220769788808,1.0870400810548677,-14.197411355027864,0.01902998425066471,0.03405417874455452,-0.9990573525428772,-0.01989465020596981,0.03665512427687645,0.007417621091008186
2024-06-15 18:46:14.463066,-1.6856875922296792,1.1280796995697124,-14.137416680905764,0.021856676787137985,0.03708788380026817,-0.9956528544425964,-0.018023153766989708,0.03473896160721779,0.00589551730081439
2024-06-15 18:46:14.481056,-1.7008204099443713,1.1736784693555407,-14.080906257034018,0.02894376777112484,0.035969074815511703,-0.9970542788505554,-0.01251978613436222,0.035254962742328644,0.002680392935872078
2024-06-15 18:46:14.490376,-1.706317538287468,1.2165677884749895,-14.028967791037948,0.027437102049589157,0.03401259332895279,-0.9998721480369568,-0.0042006028816103935,0.03597604110836983,0.0005078032845631242
2024-06-15 18:46:14.522892,-1.7066727081243087,1.260469469695481,-13.978861523286733,0.025430267676711082,0.03198898956179619,-0.9938111901283264,5.9593585319817066e-05,0.03753272071480751,-0.0020992401987314224
2024-06-15 18:46:14.540679,-1.700056922861211,1.3142790873590167,-13.94075845922817,0.02748044580221176,0.04182159900665283,-0.9847186207771301,0.009079156443476677,0.04318556934595108,-0.010075614787638187
2024-06-15 18:46:14.564891,-1.6840296705303646,1.37140358792583,-13.90303105557396,0.029250040650367737,0.04894433170557022,-0.9855935573577881,0.019799182191491127,0.04795341566205025,-0.010541493073105812
2024-06-15 18:46:14.582954,-1.6534771671558397,1.4309465090673565,-13.862118222445584,0.028921257704496384,0.044587764889001846,-0.9875763058662415,0.029417619109153748,0.04925872012972832,-0.007515248842537403
2024-06-15 18:46:14.601520,-1.61052765699433,1.492410954521478,-13.823561804580862,0.03162847459316254,0.03575071319937706,-0.991044282913208,0.03749530389904976,0.051800183951854706,-0.009243800304830074
2024-06-15 18:46:14.618988,-1.5618698162339824,1.5569895393503024,-13.788363278466846,0.026308760046958923,0.034014102071523666,-0.9920951724052429,0.0434730127453804,0.05687323585152626,-0.012008430436253548
2024-06-15 18:46:14.643261,-1.5077748247291871,1.6267840408274894,-13.7560419695407,0.028173988685011864,0.03715647757053375,-0.9936302304267883,0.049695126712322235,0.060467518866062164,-0.015480254776775837
2024-06-15 18:46:14.661475,-1.4511960989657402,1.6941611889470205,-13.723164000197198,0.029550982639193535,0.04045054316520691,-0.9945302605628967,0.05337095633149147,0.058869294822216034,-0.013646953739225864
2024-06-15 18:46:14.679202,-1.3915667332425308,1.7505441871020642,-13.680817681116766,0.026263443753123283,0.030550044029951096,-1.0024276971817017,0.05357317626476288,0.05304993689060211,-0.007318435236811638
2024-06-15 18:46:14.703574,-1.3298495707891185,1.808498128766211,-13.633490446584101,0.029796602204442024,0.021000592038035393,-1.0014057159423828,0.05185737460851669,0.0510043203830719,-0.0028527039103209972
2024-06-15 18:46:14.721182,-1.2757359029858115,1.8693523395066742,-13.588558047129172,0.03237168490886688,0.02690190263092518,-1.0010995864868164,0.049323439598083496,0.05237555876374245,-0.00402815779671073
2024-06-15 18:46:14.735669,-1.222937686927967,1.9232807384287445,-13.535733364088292,0.028464218601584435,0.0274498388171196,-1.0025008916854858,0.048668816685676575,0.050123006105422974,0.0020281951874494553
2024-06-15 18:46:14.762495,-1.170255263920895,1.9799503910855172,-13.480107449714064,0.03511853143572807,0.025059953331947327,-1.0001693964004517,0.04691438376903534,0.04860903322696686,0.00458122044801712
2024-06-15 18:46:14.782814,-1.115031156768932,2.032832276960695,-13.422099506866791,0.04119361937046051,0.020064406096935272,-0.9993887543678284,0.04786113649606705,0.04524455592036247,0.0059005264192819595
2024-06-15 18:46:14.789837,-1.0611235685794889,2.0839139811027505,-13.363988257408323,0.03777262568473816,0.020699381828308105,-1.0005830526351929,0.04697492718696594,0.0446024127304554,0.007226398680359125
2024-06-15 18:46:14.823028,-1.008985106106785,2.1312260611531944,-13.301393842533386,0.03955528140068054,0.024104256182909012,-0.9992384314537048,0.04812101274728775,0.04117211326956749,0.011689277365803719
2024-06-15 18:46:14.833204,-0.9535541722890176,2.1770273887365956,-13.235365550053228,0.03901049122214317,0.023468557745218277,-0.9988588690757751,0.04956737533211708,0.04061615839600563,0.013951779343187809
2024-06-15 18:46:14.844406,-0.8952866822532851,2.2227796243353377,-13.166442964912275,0.0427926629781723,0.017953256145119667,-1.000687837600708,0.04984594136476517,0.03848543018102646,0.017915230244398117
2024-06-15 18:46:14.883435,-0.8355756744251527,2.266286008357615,-13.099214266685486,0.0463416613638401,0.01691264845430851,-0.9970698356628418,0.05239689722657204,0.03443755581974983,0.016623804345726967
2024-06-15 18:46:14.892343,-0.7727206451446988,2.3056838201507177,-13.03592061119427,0.051873255521059036,0.017271092161536217,-0.9973891377449036,0.05527660995721817,0.029443833976984024,0.014653772115707397
2024-06-15 18:46:14.918318,-0.7117345797367425,2.335619472065826,-12.971067965024998,0.051590144634246826,0.018400590866804123,-1.00152587890625,0.054906487464904785,0.022313246503472328,0.014819316565990448
2024-06-15 18:46:14.943059,-0.6483838281329338,2.360655317025096,-12.911579578675127,0.051317308098077774,0.015035051852464676,-0.9997677803039551,0.05591079220175743,0.019502585753798485,0.011444909498095512
2024-06-15 18:46:14.961334,-0.585112210673962,2.376995904284117,-12.85400535284015,0.04370461404323578,0.015623115934431553,-0.9980929493904114,0.05575941503047943,0.016312560066580772,0.009583774954080582
2024-06-15 18:46:14.973471,-0.521212215811349,2.397702263083245,-12.80021078293713,0.04710487276315689,0.014346450567245483,-1.0003442764282227,0.056832145899534225,0.015255686827003956,0.007231840398162603
2024-06-15 18:46:15.002883,-0.45691318849081924,2.4138052878251965,-12.746338519632301,0.05358950048685074,0.01488852221518755,-0.9961923956871033,0.05808022990822792,0.012081719003617764,0.006236260756850243
2024-06-15 18:46:15.021282,-0.39016185645399043,2.42326317883496,-12.694099525312751,0.04995066300034523,0.008826931938529015,-1.001220703125,0.05731246620416641,0.00508924899622798,0.005976200569421053
2024-06-15 18:46:15.032159,-0.32554631923453925,2.428185397349012,-12.643724318862967,0.048381783068180084,0.010508650913834572,-0.9990834593772888,0.05738786607980728,0.004426774103194475,0.0033295629546046257
2024-06-15 18:46:15.062503,-0.25773089174979,2.430682258377475,-12.59484236252048,0.05340893939137459,0.010440653190016747,-1.0030118227005005,0.059214331209659576,-0.00045069106272421777,0.0033419099636375904
2024-06-15 18:46:15.081216,-0.1960449854159587,2.4309635767939146,-12.554498142640506,0.053005363792181015,0.0066457027569413185,-1.0074422359466553,0.05517125129699707,-0.003975611180067062,-0.0024921854492276907
2024-06-15 18:46:15.123201,-0.09570489746480296,2.412483646220799,-12.4746318869019,0.04858982563018799,-0.0007687348988838494,-1.0081223249435425,0.04055263102054596,-0.01164205837994814,-0.0061713214963674545
2024-06-15 18:46:15.141396,-0.060000457104531536,2.3998087361119596,-12.445334644230778,0.04814662039279938,0.0007645589066669345,-1.0097054243087769,0.03375076502561569,-0.012332048267126083,-0.012857367284595966
2024-06-15 18:46:15.158904,-0.028554132763660603,2.376383962023166,-12.41511361847441,0.050131622701883316,0.0003137370222248137,-1.004676103591919,0.028810326009988785,-0.02071576938033104,-0.012961563654243946
2024-06-15 18:46:15.183287,-0.005032197316268101,2.356662004238166,-12.391476041304289,0.05284397304058075,-0.0008163076709024608,-1.004788875579834,0.022526303306221962,-0.0234341062605381,-0.0177739467471838
2024-06-15 18:46:15.190529,0.014264211418863594,2.323628861534457,-12.366430591391497,0.050623442977666855,-0.0020083291456103325,-1.0062059164047241,0.017133323475718498,-0.028873836621642113,-0.018929708749055862
2024-06-15 18:46:15.218727,0.0259748025370552,2.2845198386771988,-12.345658278578195,0.044879063963890076,0.00044835294829681516,-1.0075674057006836,0.012588771060109138,-0.03463192656636238,-0.019760528579354286
2024-06-15 18:46:15.236814,0.032439409833806984,2.247748021176554,-12.330035928399084,0.0463973693549633,0.003273220732808113,-1.0018426179885864,0.009192878380417824,-0.03542175143957138,-0.02259126305580139
2024-06-15 18:46:15.261501,0.03543184977833246,2.2090351492911564,-12.315385172629407,0.04265495762228966,0.0020382683724164963,-1.0003350973129272,0.005931484512984753,-0.03581460192799568,-0.024904746562242508
2024-06-15 18:46:15.278693,0.038279084836982356,2.165940070722961,-12.294144138084313,0.038269784301519394,0.0019072191789746284,-1.0017478466033936,0.004334396217018366,-0.03620022535324097,-0.020616130903363228
2024-06-15 18:46:15.302804,0.040134408341459794,2.130927453820418,-12.272174834618967,0.034866128116846085,0.0035868689883500338,-1.0008976459503174,0.004084249492734671,-0.030608201399445534,-0.018766706809401512
2024-06-15 18:46:15.320947,0.04060829940587571,2.1049765769557776,-12.250148328319323,0.035147447139024734,0.0053006368689239025,-0.9996150732040405,0.003348671831190586,-0.024043945595622063,-0.017813803628087044
2024-06-15 18:46:15.330474,0.04074753454633414,2.0789405361699234,-12.224203854757029,0.03830459341406822,0.003568714950233698,-1.0011446475982666,0.002920791506767273,-0.02365361712872982,-0.017301416024565697
2024-06-15 18:46:15.363483,0.04292438053485133,2.054643632301484,-12.196842116941959,0.039900634437799454,0.0014455007622018456,-0.9976919293403625,0.0032800184562802315,-0.02338886260986328,-0.014396741054952145
2024-06-15 18:46:15.376848,0.04529600364157958,2.030798801578735,-12.168207402620327,0.03573768585920334,0.0013794406550005078,-1.001651406288147,0.002505118492990732,-0.020388755947351456,-0.01319538988173008
2024-06-15 18:46:15.384838,0.043927824703354795,2.0094158271649523,-12.13993810341929,0.03142717480659485,0.004623285960406065,-1.0005333423614502,0.0014967466704547405,-0.017710892483592033,-0.011895503848791122
2024-06-15 18:46:15.422527,0.041448852900823625,1.9936011644720224,-12.110044926743083,0.033877894282341,0.005403862334787846,-0.999977171421051,0.00027337970095686615,-0.013820684514939785,-0.010639547370374203
2024-06-15 18:46:15.438086,0.040972640639306966,1.9815356353031948,-12.077335150807892,0.03827347606420517,0.0030637322925031185,-1.0007721185684204,0.000785208132583648,-0.011487514711916447,-0.00894189439713955
2024-06-15 18:46:15.464478,0.04033715623707141,1.9701800189212255,-12.043407039879499,0.04271943122148514,0.0016506377141922712,-1.002873182296753,0.00011156070104334503,-0.012072216719388962,-0.008118506520986557
2024-06-15 18:46:15.482468,0.034118028873936786,1.9602004722136022,-12.015770386950335,0.04700200632214546,0.004956468939781189,-1.0030909776687622,-0.002268129261210561,-0.014390016905963421,-0.011601489037275314
2024-06-15 18:46:15.500700,0.021885962150763966,1.948125978421489,-11.99216354563148,0.05055372789502144,0.008777599781751633,-1.0031250715255737,-0.006388659123331308,-0.015526176430284977,-0.014730392955243587
2024-06-15 18:46:15.518749,0.008961221531269952,1.9276068094943013,-11.9700422704571,0.04607022553682327,0.006865885108709335,-1.0034979581832886,-0.009045500308275223,-0.020983800292015076,-0.016260143369436264
2024-06-15 18:46:15.542737,-0.0065396347403244605,1.90125700689345,-11.94930154726871,0.04144423454999924,9.683880489319563e-05,-1.0096118450164795,-0.012384743429720402,-0.02531423605978489,-0.01848837360739708
2024-06-15 18:46:15.551907,-0.028684923549149074,1.8689540541006977,-11.928405437276702,0.0347709059715271,-0.004706546198576689,-1.012541651725769,-0.019761815667152405,-0.028483042493462563,-0.018362052738666534
2024-06-15 18:46:15.578956,-0.060278553859478154,1.8345450551660545,-11.908037813171724,0.03856448084115982,-0.0025672288611531258,-1.0101016759872437,-0.02662903629243374,-0.031299982219934464,-0.019003789871931076
2024-06-15 18:46:15.602963,-0.09614936668895624,1.7947043482939586,-11.887699217370718,0.036557670682668686,0.0007262226426973939,-1.0038421154022217,-0.030496878549456596,-0.03628327324986458,-0.01853259466588497
2024-06-15 18:46:15.638627,-0.18117697093373678,1.6988007016624576,-11.843175775492345,0.030852457508444786,0.002521729562431574,-1.003234624862671,-0.03843717277050018,-0.042920343577861786,-0.015474039129912853
2024-06-15 18:46:15.686679,-0.2794987579954736,1.6040030120679696,-11.798405593030203,0.020708544179797173,0.0057657863944768906,-0.9991167783737183,-0.04288608580827713,-0.036598362028598785,-0.015211625955998898
2024-06-15 18:46:15.722520,-0.37668784089268575,1.537797027947684,-11.741911390857735,0.02147330529987812,0.01333608478307724,-0.9949238300323486,-0.036928560584783554,-0.025172321125864983,-0.008113707415759563
2024-06-15 18:46:15.741120,-0.41759728560690357,1.5130319359559814,-11.707482114798994,0.024922173470258713,0.00919165275990963,-0.9987092614173889,-0.03479965776205063,-0.021825948730111122,-0.004929804243147373
2024-06-15 18:46:15.752468,-0.45706788160334944,1.4884910662681254,-11.669822159262836,0.02472897619009018,0.007262581959366798,-0.9999277591705322,-0.03457555174827576,-0.020326998084783554,-0.002390509471297264
2024-06-15 18:46:15.783333,-0.4984999691912055,1.4711708804717367,-11.630066189425131,0.02305382862687111,0.011858575977385044,-0.999403178691864,-0.03442641720175743,-0.015377586707472801,-0.000562082277610898
2024-06-15 18:46:15.800472,-0.5395171761478361,1.4569749726121,-11.588767450608648,0.021313399076461792,0.01762341894209385,-0.9975820183753967,-0.033416956663131714,-0.011260341852903366,0.0020203355234116316
2024-06-15 18:46:15.812940,-0.577952037989673,1.4485266689390288,-11.546314409822434,0.02483747899532318,0.016904940828680992,-0.9983296990394592,-0.0312642902135849,-0.007841622456908226,0.0032936499919742346
2024-06-15 18:46:15.843246,-0.6131603291397665,1.4467337442819006,-11.504062859616734,0.02813727967441082,0.014519237913191319,-0.9974665641784668,-0.030393296852707863,-0.003627161029726267,0.003909391816705465
2024-06-15 18:46:15.861504,-0.6458036174522557,1.4451387883889968,-11.458597705406545,0.027438905090093613,0.013396656140685081,-0.9999130368232727,-0.029039908200502396,-0.002570213982835412,0.006086338311433792
2024-06-15 18:46:15.875469,-0.6813954664129277,1.4457718615476922,-11.41458482016863,0.025026263669133186,0.016337797045707703,-1.0006614923477173,-0.029647482559084892,0.0009198184125125408,0.006208468694239855
2024-06-15 18:46:15.903280,-0.7181909761322558,1.4482935887336021,-11.366771788431247,0.025811249390244484,0.015265986323356628,-1.0004216432571411,-0.03133262321352959,0.001817526645027101,0.008067833259701729
2024-06-15 18:46:15.921444,-0.7550761320844402,1.4558848103875424,-11.320845596452083,0.027559718117117882,0.013650900684297085,-1.0030828714370728,-0.032179899513721466,0.0053110490553081036,0.008117139339447021
2024-06-15 18:46:15.938180,-0.794910062128219,1.4626582236100796,-11.274345668582635,0.027662241831421852,0.014250715263187885,-1.0030593872070312,-0.03489159047603607,0.006184413563460112,0.008506732061505318
2024-06-15 18:46:15.963283,-0.8382200248510054,1.4728643404990769,-11.22858083982261,0.02667813003063202,0.01914907619357109,-1.0018001794815063,-0.0354805625975132,0.007513081654906273,0.009067597799003124
2024-06-15 18:46:15.980888,-0.8815013861566424,1.483274616011234,-11.180851477902563,0.02482997439801693,0.020795011892914772,-1.0015910863876343,-0.035879503935575485,0.008865774609148502,0.010589486919343472
2024-06-15 18:46:15.990919,-0.9251663052728579,1.5006539256326257,-11.133425205626931,0.027499645948410034,0.019579704850912094,-1.000824213027954,-0.036973439157009125,0.013294056057929993,0.011951912194490433
2024-06-15 18:46:16.023124,-0.9697638120150446,1.5191320419367431,-11.084969282333923,0.02692216821014881,0.01951347291469574,-1.0015534162521362,-0.03822772949934006,0.016273198649287224,0.012394311837852001
2024-06-15 18:46:16.041114,-1.0167868896862322,1.541071676767882,-11.036690090185688,0.02705310843884945,0.020642351359128952,-1.0021023750305176,-0.03856268152594566,0.01675277203321457,0.01212967187166214
2024-06-15 18:46:16.059103,-1.0660081143314002,1.5638614567072757,-10.98778935082298,0.026715602725744247,0.022862963378429413,-1.0025229454040527,-0.0401427261531353,0.020183183252811432,0.012878142297267914
2024-06-15 18:46:16.083088,-1.1143604108480956,1.5889238753712855,-10.936213738626568,0.027461886405944824,0.02231898531317711,-0.9997872710227966,-0.04149480164051056,0.02203570306301117,0.015851421281695366
2024-06-15 18:46:16.097134,-1.1627684160952088,1.6254070106577914,-10.883694706551049,0.029698675498366356,0.023070892319083214,-0.999600350856781,-0.04089498147368431,0.02870606631040573,0.016583934426307678
2024-06-15 18:46:16.118634,-1.2108730115327855,1.6628146760814817,-10.832086650956079,0.02662968635559082,0.02673696167767048,-0.9983953237533569,-0.04007917270064354,0.03174532949924469,0.017515886574983597
2024-06-15 18:46:16.142619,-1.2575458285655983,1.7047506502031848,-10.78181987375937,0.029467502608895302,0.02936362475156784,-0.9977914094924927,-0.038410674780607224,0.035674843937158585,0.017330579459667206
2024-06-15 18:46:16.156728,-1.3028325440837216,1.750747918838401,-10.72724153964909,0.03204689919948578,0.028219640254974365,-0.9984041452407837,-0.037832893431186676,0.03945363685488701,0.01933114603161812
2024-06-15 18:46:16.164055,-1.344779190376003,1.801017577521166,-10.675075116089472,0.030844470486044884,0.024407675489783287,-0.9983677864074707,-0.037375472486019135,0.04266219213604927,0.01950431987643242
2024-06-15 18:46:16.203514,-1.3883594258186809,1.8544776815982673,-10.621832937735576,0.030723033472895622,0.02669527195394039,-1.0006388425827026,-0.037408798933029175,0.045111555606126785,0.020465239882469177
2024-06-15 18:46:16.219232,-1.4338896802693972,1.9116563967916176,-10.566492183759193,0.03225581347942352,0.03172403946518898,-0.9992300868034363,-0.03746107965707779,0.04859338328242302,0.022097719833254814
2024-06-15 18:46:16.239288,-1.4765316184748447,1.9748516548701027,-10.507905382379763,0.03508980944752693,0.030468083918094635,-0.9999219179153442,-0.03654979169368744,0.05252937600016594,0.025932710617780685
2024-06-15 18:46:16.262304,-1.5183534003713617,2.0364582536363254,-10.4482325809223,0.03368514031171799,0.027650032192468643,-0.9983401894569397,-0.038202498108148575,0.05368729680776596,0.026395460590720177
2024-06-15 18:46:16.272459,-1.560810283138984,2.101568739446764,-10.39014011448405,0.03902265056967735,0.029789628461003304,-0.9987257122993469,-0.03623586893081665,0.05390751361846924,0.026428822427988052
2024-06-15 18:46:16.299179,-1.6025713403849116,2.16748860267385,-10.330655143228762,0.040984176099300385,0.03431064635515213,-0.9963954091072083,-0.03540081903338432,0.05541159212589264,0.027437381446361542
2024-06-15 18:46:16.322675,-1.6405746196485682,2.23034448572795,-10.270801341758293,0.042785171419382095,0.03676725551486015,-0.997850775718689,-0.033137597143650055,0.053115829825401306,0.029034489765763283
2024-06-15 18:46:16.333358,-1.6737873749831071,2.2902676563071758,-10.208904459952347,0.04412306845188141,0.03532393276691437,-0.995718240737915,-0.029084479436278343,0.0503082200884819,0.031067509204149246
2024-06-15 18:46:16.364680,-1.7029300846242592,2.355002481713264,-10.146041960152488,0.043785639107227325,0.0331992544233799,-0.9963152408599854,-0.02578314021229744,0.05308706685900688,0.03219890594482422
2024-06-15 18:46:16.383327,-1.730799284150321,2.4142697406887574,-10.080156247871251,0.04446987435221672,0.03312518820166588,-0.9999549388885498,-0.025225957855582237,0.05129005014896393,0.033482883125543594
2024-06-15 18:46:16.394540,-1.7592100963332238,2.4736253652366376,-10.01599601212909,0.04420100525021553,0.03624744340777397,-0.9977585077285767,-0.024022134020924568,0.04909674450755119,0.03440380468964577
2024-06-15 18:46:16.406976,-1.7860968158358617,2.5356891597904276,-9.95169661128259,0.0456901490688324,0.038145728409290314,-0.9986218810081482,-0.022436030209064484,0.052933018654584885,0.03446495532989502
2024-06-15 18:46:16.442665,-1.8085578929214485,2.594680649878182,-9.883077969559704,0.04341402277350426,0.034406792372465134,-0.997391939163208,-0.021076148375868797,0.05102881044149399,0.03835638612508774
2024-06-15 18:46:16.451804,-1.8304655112408528,2.658911108502747,-9.81764731863192,0.05163034796714783,0.03361986577510834,-0.9975868463516235,-0.01964639686048031,0.051058247685432434,0.0364048033952713
2024-06-15 18:46:16.479357,-1.850886709642133,2.7148268790298795,-9.752531710179603,0.05813739821314812,0.03751034289598465,-0.9942355155944824,-0.017323706299066544,0.04504638910293579,0.035292524844408035
2024-06-15 18:46:16.502696,-1.867598901880685,2.7688577307895,-9.69070654535994,0.055879391729831696,0.039041660726070404,-0.9964500665664673,-0.013951893895864487,0.042160894721746445,0.03558145463466644
2024-06-15 18:46:16.521438,-1.8820522224946667,2.816253053770453,-9.626480569047018,0.05036073178052902,0.03996532782912254,-0.9969922304153442,-0.012684198096394539,0.04179181531071663,0.035504989326000214
2024-06-15 18:46:16.535895,-1.8904059707364154,2.864315173969129,-9.56195321063697,0.051857687532901764,0.0354444794356823,-0.9957735538482666,-0.00886413361877203,0.039866670966148376,0.03617525100708008
2024-06-15 18:46:16.562590,-1.8967542046831192,2.9146724511723403,-9.50185608367732,0.05494196340441704,0.037712208926677704,-0.9983994960784912,-0.006058718077838421,0.040192779153585434,0.03364187479019165
2024-06-15 18:46:16.594428,-1.9051651557591667,3.006719068635194,-9.379850122080674,0.05908121168613434,0.03947749361395836,-0.9969742894172668,-0.0026275068521499634,0.03527597337961197,0.03395155444741249
2024-06-15 18:46:16.622999,-1.9047924835625778,3.046308339168469,-9.31964029699972,0.05362052842974663,0.037240274250507355,-0.9991441965103149,-0.001079837209545076,0.03425254300236702,0.03457997739315033
2024-06-15 18:46:16.640611,-1.9046661250629326,3.0918116997493286,-9.261788594729712,0.05459698662161827,0.03740708529949188,-0.99815833568573,0.00013305601896718144,0.03762282803654671,0.03253692016005516
2024-06-15 18:46:16.658408,-1.9019530458585565,3.136074313778773,-9.20186051495202,0.05934590846300125,0.0369706004858017,-0.9968507289886475,0.002151623135432601,0.03504888340830803,0.03371293097734451
2024-06-15 18:46:16.683018,-1.8976916481467034,3.1786972555205915,-9.146303756243135,0.06794009357690811,0.03680630028247833,-0.9988490343093872,0.003919231705367565,0.03180251270532608,0.030347730964422226
2024-06-15 18:46:16.690504,-1.8907878209997013,3.2118471517704252,-9.09305730902101,0.06485380232334137,0.03570263087749481,-0.9964699745178223,0.0051896157674491405,0.026064414530992508,0.0286982674151659
2024-06-15 18:46:16.718403,-1.8836901872350003,3.242309368581859,-9.044557843272042,0.05969305709004402,0.0357065312564373,-0.99826580286026,0.005168198142200708,0.026799850165843964,0.025945995002985
2024-06-15 18:46:16.736071,-1.8769449485427896,3.2715630687970236,-8.998455773921748,0.06199648231267929,0.03515717759728432,-0.9984573721885681,0.004804989323019981,0.024079974740743637,0.023091111332178116
2024-06-15 18:46:16.760635,-1.8708820884373454,3.3014474942933565,-8.956744662434126,0.06495893746614456,0.04002833738923073,-0.9933260083198547,0.007761956192553043,0.02236357145011425,0.020877022296190262
2024-06-15 18:46:16.778438,-1.8606092704822348,3.327542872347625,-8.914124282013246,0.06576824933290482,0.037006981670856476,-0.9934217929840088,0.009316270239651203,0.020502639934420586,0.019871048629283905
2024-06-15 18:46:16.802516,-1.8484869653659315,3.3577555738109415,-8.875682269817123,0.07227306067943573,0.0399940125644207,-0.9929468035697937,0.012410908937454224,0.020484909415245056,0.01763751730322838
2024-06-15 18:46:16.831814,-1.8148843556401728,3.4068761598875574,-8.809946821697627,0.0679590031504631,0.03963123634457588,-0.9924391508102417,0.01790088228881359,0.01741570048034191,0.013708984479308128
2024-06-15 18:46:16.863064,-1.7906292866803997,3.4324746416797076,-8.77927927232427,0.07016101479530334,0.03970251977443695,-0.9941850900650024,0.022483160719275475,0.01868252642452717,0.01187259890139103
2024-06-15 18:46:16.881283,-1.760066004413591,3.449793013207098,-8.74311854331093,0.06711942702531815,0.035771362483501434,-0.9918777346611023,0.02637455426156521,0.01294653583317995,0.014981234446167946
2024-06-15 18:46:16.894754,-1.7231231120185786,3.472082054902965,-8.71278652698055,0.06448514014482498,0.03931529447436333,-0.9901062250137329,0.03366243466734886,0.016466950997710228,0.01202557422220707
2024-06-15 18:46:16.922783,-1.6811359114781004,3.4873338673196037,-8.678609967921098,0.06276266276836395,0.04249901697039604,-0.991556704044342,0.04029260203242302,0.0136266415938735,0.014742457307875156
2024-06-15 18:46:16.939008,-1.6290384301404166,3.505875696482073,-8.645340116473966,0.06659823656082153,0.0369102768599987,-0.9905908703804016,0.04564785584807396,0.012300611473619938,0.014802681282162666
2024-06-15 18:46:16.959332,-1.5681405702222888,3.5213627235382536,-8.610596651713404,0.07062061876058578,0.03210785612463951,-0.9952889084815979,0.051771704107522964,0.010071855038404465,0.015055891126394272
2024-06-15 18:46:16.983397,-1.5043534335635396,3.533588975595988,-8.579665286283355,0.06707746535539627,0.032676637172698975,-0.9928131699562073,0.05690217390656471,0.008600512519478798,0.013972100801765919
2024-06-15 18:46:17.000534,-1.437372436415869,3.5425770776569014,-8.548407779320437,0.06266924738883972,0.03461533412337303,-0.998581051826477,0.06038295105099678,0.008124222978949547,0.013336519710719585
2024-06-15 18:46:17.019362,-1.3685660712125127,3.5505707468633436,-8.516291376069391,0.062281832098960876,0.03560802713036537,-0.9945370554924011,0.06270446628332138,0.006899874657392502,0.014660431072115898
2024-06-15 18:46:17.043364,-1.2917205733560513,3.5637220626667916,-8.484659916249417,0.06486253440380096,0.02714417688548565,-0.9939519762992859,0.06713289022445679,0.008828544989228249,0.014271143823862076
2024-06-15 18:46:17.053501,-1.209378053878199,3.576181821816776,-8.452657918666967,0.06441400200128555,0.027238672599196434,-0.9936078190803528,0.07209045439958572,0.009163251146674156,0.013594412244856358
2024-06-15 18:46:17.079385,-1.1237272682428274,3.5883414795301025,-8.418970571906819,0.07248054444789886,0.025603031739592552,-0.9988360404968262,0.07438251376152039,0.006019209045916796,0.015125183388590813
2024-06-15 18:46:17.103167,-1.0394157332933074,3.595020977651552,-8.390111315116222,0.07043828070163727,0.024917056784033775,-0.9972805380821228,0.07518185675144196,0.004221499897539616,0.011396261863410473
2024-06-15 18:46:17.113458,-0.9507630795177154,3.5952053927591425,-8.361941907431797,0.06750854104757309,0.01864580251276493,-0.9981219172477722,0.07559974491596222,-0.0008146428735926747,0.010053249076008797
2024-06-15 18:46:17.125785,-0.8633767855029261,3.599367112397796,-8.33846740102811,0.06774438172578812,0.017356103286147118,-1.000259280204773,0.07584623247385025,0.0010547959245741367,0.006066262722015381
2024-06-15 18:46:17.162772,-0.7774375844576802,3.600837737503464,-8.315699819203518,0.0692262053489685,0.019734211266040802,-0.9944818019866943,0.07776769995689392,5.8815712691284716e-05,0.0059011587873101234
2024-06-15 18:46:17.172239,-0.6886986995438167,3.6012441337590797,-8.293972987453708,0.06798552721738815,0.017701171338558197,-0.9988989233970642,0.07852058857679367,-0.0021445699967443943,0.004884151741862297
2024-06-15 18:46:17.198837,-0.5996345802315842,3.5991899543661985,-8.271966971721573,0.07000984251499176,0.013471349142491817,-0.9971336722373962,0.07797104120254517,-0.0030348310247063637,0.005478174425661564
2024-06-15 18:46:17.220323,-0.5102149709173939,3.596706753716076,-8.254864178039861,0.06734377145767212,0.01293044164776802,-0.9970346689224243,0.0784657895565033,-0.003732527606189251,0.0019064198713749647
2024-06-15 18:46:17.226026,-0.42193973845429783,3.5964510485090235,-8.239618342038746,0.06772482395172119,0.013319636695086956,-0.9982512593269348,0.07963458448648453,-0.0028954290319234133,0.000310151488520205
2024-06-15 18:46:17.264871,-0.33394886597625656,3.595225456439829,-8.223063671037927,0.0708233192563057,0.011613333597779274,-1.0035454034805298,0.07756736874580383,-0.004077099729329348,-2.4571752874180675e-05
2024-06-15 18:46:17.281793,-0.2512260170194256,3.5883273922649397,-8.204728881984675,0.0660322979092598,7.811834802851081e-05,-1.0107003450393677,0.06998120993375778,-0.00664439145475626,0.0011201840825378895
2024-06-15 18:46:17.301420,-0.18370983719768758,3.581596240837892,-8.18827581004776,0.0650036633014679,-0.002906499896198511,-1.0124657154083252,0.05803216993808746,-0.005081934854388237,-0.001496711396612227
2024-06-15 18:46:17.319441,-0.1302713842866466,3.572973980784397,-8.171431709780862,0.06407898664474487,0.0004268463817425072,-1.0066075325012207,0.04703573137521744,-0.0062640998512506485,-0.0006178703624755144
2024-06-15 18:46:17.360498,-0.05134760794211708,3.5669089862448375,-8.141722948212246,0.06472425162792206,0.0008355997269973159,-1.0083426237106323,0.03230742737650871,-0.004517301917076111,0.0010113022290170193
2024-06-15 18:46:17.378420,-0.021372025433780216,3.562766263069813,-8.125075215883985,0.06603606045246124,-0.002870976459234953,-1.004289150238037,0.025608491152524948,-0.005723532289266586,0.0006164517253637314
2024-06-15 18:46:17.392952,0.0010166582750230255,3.559120649600319,-8.10883900245322,0.06546150892972946,-0.0012198190670460463,-1.0059887170791626,0.018997319042682648,-0.004403062164783478,-0.00013805809430778027
2024-06-15 18:46:17.421048,0.01248793868289046,3.556244499629509,-8.094849067485741,0.062145281583070755,0.004435655660927296,-1.0051535367965698,0.012874971143901348,-0.0029128510504961014,-0.0003510905662551522
2024-06-15 18:46:17.439038,0.02012151718133939,3.5535794451927343,-8.077216934143353,0.06659024953842163,0.0028486803639680147,-1.0027616024017334,0.008588279597461224,-0.003871056716889143,0.001186327775940299
2024-06-15 18:46:17.462513,0.025011382343273086,3.5505009508677627,-8.06141956036676,0.06301482766866684,-0.0012908303178846836,-1.002567172050476,0.004250610712915659,-0.002741984324529767,0.00048023636918514967
2024-06-15 18:46:17.489687,0.0231321531767006,3.5514766007020167,-8.031284765748664,0.06696736812591553,0.005908672232180834,-0.9983015656471252,0.0010120691731572151,-0.0006877962732687593,0.001039825496263802
2024-06-15 18:46:17.522649,0.022926873975629983,3.550455273977688,-8.014906825892618,0.06567256897687912,0.006478318944573402,-0.9977501034736633,0.002377057448029518,-0.002007901668548584,0.0024375251960009336
2024-06-15 18:46:17.541590,0.02311970008765723,3.5499336182798285,-7.997832206741233,0.06532298773527145,0.0014677069848403335,-0.9997862577438354,0.000769395031966269,-0.00086166278924793,0.0023243092000484467
2024-06-15 18:46:17.551238,0.02450655365686712,3.5500883647532118,-7.982119356555619,0.06529341638088226,0.000892787124030292,-0.9983054399490356,0.0011163967428728938,-0.000970797089394182,0.0001540371449664235
2024-06-15 18:46:17.583281,0.024059976679024646,3.5487923363582015,-7.968161011213051,0.06594090163707733,0.0051720645278692245,-0.9993927478790283,0.0003931187093257904,-0.0024069787468761206,0.00012032246741000563
2024-06-15 18:46:17.600678,0.021441549622516872,3.5492446229473034,-7.953494887517742,0.06763188540935516,0.006875200197100639,-0.9988247752189636,0.00011040647223126143,-0.0018064347095787525,0.0013958525378257036
2024-06-15 18:46:17.614002,0.02112158294084421,3.5479778362996774,-7.9384428581343265,0.06698513776063919,0.0033401993568986654,-0.99855637550354,0.0008910400792956352,-0.002590497490018606,0.0009445028845220804
2024-06-15 18:46:17.643241,0.021417894089419753,3.545102753545925,-7.924746621301158,0.06451362371444702,0.0010966857662424445,-1.0004533529281616,0.0008180821314454079,-0.002571371616795659,-0.0002181846066378057
2024-06-15 18:46:17.657896,0.017556177503351277,3.5443764056163767,-7.9132889789684615,0.06741838157176971,0.004337172489613295,-0.999449610710144,-0.000809577526524663,-0.003284008940681815,-0.0010470030829310417
2024-06-15 18:46:17.679399,0.011974919939329094,3.5452177995447576,-7.904304718888956,0.07283737510442734,0.006311750505119562,-0.9997696876525879,-0.002257176674902439,-0.004461326170712709,-0.003492235206067562
2024-06-15 18:46:17.703243,0.005395114898819499,3.5417901117984694,-7.896583190032257,0.0759957805275917,0.005164633970707655,-1.0018969774246216,-0.0038389272522181273,-0.007848245091736317,-0.004222269169986248
2024-06-15 18:46:17.719598,-0.002219972188135311,3.5294086863805285,-7.88938246309977,0.06957387924194336,-0.00046313341590575874,-1.0043364763259888,-0.0068539781495928764,-0.01240408793091774,-0.0050258939154446125
2024-06-15 18:46:17.739592,-0.016392173863552927,3.5134730012732427,-7.885183604307506,0.06617844104766846,-0.00013999073416925967,-1.004342794418335,-0.010863739997148514,-0.015047332271933556,-0.007664677686989307
2024-06-15 18:46:17.762602,-0.03848957005626313,3.4958737382162353,-7.88488649107861,0.06354498118162155,0.0018134525744244456,-1.0045009851455688,-0.01728946901857853,-0.016138996928930283,-0.010807528160512447
2024-06-15 18:46:17.772317,-0.06630368784192854,3.477391673209004,-7.881923896526117,0.06469549238681793,0.0006967517547309399,-1.0043822526931763,-0.02313264086842537,-0.016981177031993866,-0.009808261878788471
2024-06-15 18:46:17.799483,-0.10007483115143595,3.4601874939068,-7.88286390131064,0.06588307023048401,0.0010283415904268622,-1.0034090280532837,-0.027767525985836983,-0.017145641148090363,-0.012845059856772423
2024-06-15 18:46:17.823174,-0.13947475736833467,3.4407893297771404,-7.886601722333929,0.0671071857213974,0.0021507893688976765,-1.0020092725753784,-0.03253253921866417,-0.01915759965777397,-0.01392239611595869
2024-06-15 18:46:17.832764,-0.18394008927791106,3.4196637681177022,-7.891522873630923,0.06461714953184128,0.007321786135435104,-1.0011839866638184,-0.03539605066180229,-0.019450604915618896,-0.01452390756458044
2024-06-15 18:46:17.844383,-0.2283248996604753,3.3948033736427368,-7.895485237123177,0.06070795655250549,0.007093672174960375,-0.9992498159408569,-0.03641553223133087,-0.02150069922208786,-0.015009735710918903
2024-06-15 18:46:17.883078,-0.27239261317473645,3.375344805027605,-7.903109435784204,0.06408395618200302,0.007735000923275948,-0.9990596175193787,-0.03578740730881691,-0.019537998363375664,-0.018049204722046852
2024-06-15 18:46:17.892382,-0.319993081954628,3.351429324535629,-7.908733242792064,0.06409438699483871,0.008061448112130165,-1.0016237497329712,-0.03933235630393028,-0.021182818338274956,-0.018044378608465195
2024-06-15 18:46:17.919440,-0.36992517988200624,3.329154156661513,-7.9186694604871395,0.06254076212644577,0.009099467657506466,-0.9989359378814697,-0.04104079306125641,-0.021266067400574684,-0.018705308437347412
2024-06-15 18:46:17.939011,-0.42076542616473167,3.303805403660892,-7.925450130785669,0.06232857331633568,0.010155752301216125,-1.0009468793869019,-0.04274633154273033,-0.02185184881091118,-0.017698099836707115
2024-06-15 18:46:17.946460,-0.47386411718520416,3.280450212124268,-7.9343063248182375,0.06283994764089584,0.00982595793902874,-1.0015006065368652,-0.0439167246222496,-0.02243225648999214,-0.01852084882557392
2024-06-15 18:46:17.979055,-0.5279953940699651,3.2532882573424198,-7.943092509411812,0.0601578950881958,0.011575067415833473,-1.0007504224777222,-0.04489554092288017,-0.022596819326281548,-0.019588446244597435
2024-06-15 18:46:18.002436,-0.5838107928328101,3.2268530773769433,-7.952054571376515,0.05880280211567879,0.014024613425135612,-1.0002256631851196,-0.04646361619234085,-0.023486580699682236,-0.018819395452737808
2024-06-15 18:46:18.021247,-0.6402902140490273,3.2032957549295693,-7.962334859851031,0.058302585035562515,0.0134766586124897,-0.9989778995513916,-0.047269146889448166,-0.021591799333691597,-0.019562553614377975
2024-06-15 18:46:18.032098,-0.6962084391753929,3.177327589148592,-7.970108468900151,0.05629352107644081,0.012633273378014565,-0.9992361664772034,-0.04798533022403717,-0.023227639496326447,-0.020093711093068123
2024-06-15 18:46:18.062884,-0.7562007120591122,3.1546686500204864,-7.980765271552664,0.06461139768362045,0.014800465665757656,-0.9991312026977539,-0.04916416108608246,-0.022829752415418625,-0.022611232474446297
2024-06-15 18:46:18.072987,-0.8134466619271048,3.1230937527045755,-7.993947536650788,0.06466685980558395,0.020676389336586,-0.992732584476471,-0.04572480916976929,-0.02853311412036419,-0.02400857023894787
2024-06-15 18:46:18.098615,-0.8618831618696617,3.0922799945942976,-8.010365603868207,0.06046498939394951,0.02507041208446026,-0.9868252277374268,-0.03775669261813164,-0.030989600345492363,-0.024350224062800407
2024-06-15 18:46:18.123483,-0.898391963726408,3.053624752430022,-8.024142095424123,0.05795814096927643,0.024274447932839394,-0.9933585524559021,-0.029365617781877518,-0.03331584483385086,-0.025355195626616478
2024-06-15 18:46:18.128697,-0.9261877387188922,3.016206201392342,-8.04016828053791,0.05848343297839165,0.023203764110803604,-0.9896911978721619,-0.02126643806695938,-0.03549451753497124,-0.025318950414657593
2024-06-15 18:46:18.165517,-0.943542075461131,2.9761620829490263,-8.058521852611381,0.059149689972400665,0.023318972438573837,-0.9924869537353516,-0.012750019319355488,-0.03598715737462044,-0.028721651062369347
2024-06-15 18:46:18.188395,-0.9651985776068316,2.892848289226857,-8.106398063598586,0.05580800771713257,0.024515574797987938,-0.9931538105010986,-0.0035616105888038874,-0.03832017630338669,-0.035297784954309464
2024-06-15 18:46:18.218788,-0.9655911000406957,2.842792180677361,-8.131353013504874,0.05212237313389778,0.018990039825439453,-0.9988952279090881,2.085251617245376e-05,-0.04164977744221687,-0.036002226173877716
2024-06-15 18:46:18.235375,-0.9672144439073374,2.7963413447925736,-8.160371072193673,0.049634046852588654,0.017618700861930847,-0.9992759823799133,0.0004087825655005872,-0.040220558643341064,-0.03742113709449768
2024-06-15 18:46:18.260857,-0.9691185725818899,2.748016902641087,-8.186752677862847,0.04857447370886803,0.021553603932261467,-0.9982237815856934,0.00197902275249362,-0.04064023122191429,-0.03828911483287811
2024-06-15 18:46:18.278545,-0.9703299706642152,2.7022939087897293,-8.219398420774569,0.05630307272076607,0.024327192455530167,-0.9980913996696472,0.004800044931471348,-0.04385434091091156,-0.04120007902383804
2024-06-15 18:46:18.302854,-0.9651591972973982,2.6475892161798047,-8.257171074432032,0.06493154168128967,0.0244358591735363,-0.9976032972335815,0.009299666620790958,-0.050679098814725876,-0.0474313348531723
2024-06-15 18:46:18.320880,-0.9523633714959082,2.5711867201240417,-8.29826149247883,0.06616302579641342,0.02446828968822956,-0.9930238127708435,0.015189691446721554,-0.0681319609284401,-0.04921768978238106
2024-06-15 18:46:18.333804,-0.9302918286364236,2.4929133925659306,-8.344749467517229,0.05918550863862038,0.02564826048910618,-0.9899134039878845,0.023173687979578972,-0.07304330170154572,-0.05269676446914673
2024-06-15 18:46:18.363194,-0.9004746378147329,2.4094198794912254,-8.39653937689885,0.04960319399833679,0.028840607032179832,-0.9915069937705994,0.031619369983673096,-0.07095709443092346,-0.06009874492883682
2024-06-15 18:46:18.387184,-0.8618999705383223,2.3178885144238843,-8.444477059588584,0.044884536415338516,0.02580290660262108,-0.9938751459121704,0.038034286350011826,-0.07951293885707855,-0.05718386545777321
2024-06-15 18:46:18.392313,-0.8152258194841873,2.2272709006014444,-8.497980492678233,0.04824833571910858,0.021918384358286858,-0.9926793575286865,0.044502828270196915,-0.08149565011262894,-0.061482883989810944
2024-06-15 18:46:18.422573,-0.7617747333912245,2.1315624479698174,-8.547302142448542,0.049218788743019104,0.018900135532021523,-0.993598461151123,0.0497366301715374,-0.08569148927927017,-0.060434065759181976
2024-06-15 18:46:18.439064,-0.7027218783226462,2.034788272384257,-8.600886684034585,0.04100700840353966,0.016387149691581726,-0.9927465319633484,0.054055213928222656,-0.0852239578962326,-0.0632922574877739
2024-06-15 18:46:18.459596,-0.6418475505406431,1.926817922645165,-8.654049461439378,0.03592720627784729,0.016335170716047287,-0.9920406937599182,0.05696844309568405,-0.09238817542791367,-0.06391550600528717
2024-06-15 18:46:18.483362,-0.5692074215004997,1.82127677237307,-8.702082766777494,0.028469204902648926,0.01932654157280922,-0.990964412689209,0.06613349914550781,-0.0874398797750473,-0.05864293873310089
2024-06-15 18:46:18.500628,-0.4896219505698054,1.7259199677619932,-8.737807217457599,0.018933461979031563,0.021435333415865898,-0.9900577664375305,0.07436972856521606,-0.07954487204551697,-0.048799436539411545
2024-06-15 18:46:18.519028,-0.40060641631412996,1.6458953370120082,-8.77200426708456,0.013309875503182411,0.015009875409305096,-0.9929865598678589,0.07912170141935349,-0.06691141426563263,-0.04643325135111809
2024-06-15 18:46:18.543512,-0.3063760326271498,1.5698308285984552,-8.7975508821277,0.015250800177454948,0.012087548151612282,-0.9922845959663391,0.08357274532318115,-0.060572102665901184,-0.04255518317222595
2024-06-15 18:46:18.552624,-0.20678262976060055,1.5104749906071635,-8.816391105179534,0.031457554548978806,0.012836595997214317,-0.9934095740318298,0.09087584912776947,-0.055609237402677536,-0.03505726903676987
2024-06-15 18:46:18.564216,-0.10008142788687457,1.460288681576614,-8.834509035726638,0.02898264117538929,0.012848028913140297,-0.9925498366355896,0.0964161679148674,-0.04854799062013626,-0.032858964055776596
2024-06-15 18:46:18.603043,0.013953844688131305,1.401461329472352,-8.843897984514468,0.015182379633188248,0.0038462993688881397,-1.000199317932129,0.09966307878494263,-0.04664473980665207,-0.027659503743052483
2024-06-15 18:46:18.612058,0.1306852110410274,1.3480805196226462,-8.845832635596874,0.015662679448723793,-0.0006592095014639199,-0.9975618124008179,0.10161243379116058,-0.04351222515106201,-0.021861813962459564
2024-06-15 18:46:18.625932,0.25048302050377513,1.3132350289113568,-8.848477626352961,0.025474347174167633,-0.0001056533947121352,-0.9930024743080139,0.10640817135572433,-0.035726211965084076,-0.019683992490172386
2024-06-15 18:46:18.663056,0.37086227650004666,1.2790632723286657,-8.845190597814893,0.021279392763972282,0.0014026417629793286,-1.001969337463379,0.10647619515657425,-0.030917488038539886,-0.01551483292132616
2024-06-15 18:46:18.672376,0.4895563167207498,1.2393314215964668,-8.835832384878328,0.018200237303972244,-0.003845623228698969,-1.002012014389038,0.10527300089597702,-0.0315677672624588,-0.010343348607420921
2024-06-15 18:46:18.699508,0.6094830193236551,1.2092328056366304,-8.8244959784034,0.018458282575011253,-0.010125228203833103,-1.0022978782653809,0.104213647544384,-0.02675732783973217,-0.007720397785305977
2024-06-15 18:46:18.720290,0.7236428011112482,1.1888795889619328,-8.813160425702119,0.019652947783470154,-0.015043270774185658,-1.0073622465133667,0.09846605360507965,-0.01875562034547329,-0.009092179127037525
2024-06-15 18:46:18.725852,0.8290756822128278,1.1663876693033752,-8.797093259453309,0.019483329728245735,-0.010968727990984917,-1.0046701431274414,0.09415005892515182,-0.01785164698958397,-0.004665139131247997
2024-06-15 18:46:18.759667,0.9345934604313565,1.1469104243897317,-8.777850055240444,0.024183383211493492,-0.011014132760465145,-1.001710295677185,0.09288828819990158,-0.01936209574341774,-0.0008248715894296765
2024-06-15 18:46:18.782146,1.0384169248488988,1.1329621108875079,-8.759597228457231,0.02078069932758808,-0.015877101570367813,-1.0028541088104248,0.09120891243219376,-0.01288276445120573,-0.0012861795257776976
2024-06-15 18:46:18.801293,1.1395216538116588,1.116307121483255,-8.7351306370766,0.016059549525380135,-0.020820820704102516,-1.005198359489441,0.08648788928985596,-0.010105190798640251,0.0004946719855070114
2024-06-15 18:46:18.819500,1.2360881489577686,1.1075685347704582,-8.713031560017024,0.021798115223646164,-0.019404463469982147,-0.9994019269943237,0.0846322625875473,-0.010632291436195374,0.0013519537169486284
2024-06-15 18:46:18.833678,1.3309659865532983,1.1030964684113924,-8.69144645469249,0.02667282521724701,-0.016202501952648163,-0.99974524974823,0.08552325516939163,-0.0075849550776183605,0.0017530964687466621
2024-06-15 18:46:18.861337,1.4243802426757413,1.0941462525560313,-8.666595665171046,0.02223832532763481,-0.020258069038391113,-1.0021048784255981,0.08317192643880844,-0.009563921950757504,0.0036146859638392925
2024-06-15 18:46:18.879402,1.5214422467017943,1.0846832389043901,-8.636739200761628,0.012126337736845016,-0.028188196942210197,-1.00104558467865,0.0828535258769989,-0.005013791844248772,0.006872197613120079
2024-06-15 18:46:18.892726,1.6156302351911527,1.0842627553836113,-8.603309693642647,0.012115051038563251,-0.023604214191436768,-0.9977498650550842,0.08363804221153259,0.0018103766487911344,0.010863094590604305
2024-06-15 18:46:18.907626,1.7084577353752093,1.0965225180569609,-8.56654876175599,0.014470942318439484,-0.01892339438199997,-0.9986034035682678,0.08425794541835785,0.010598468594253063,0.014620899222791195
2024-06-15 18:46:18.938902,1.802935153130647,1.1135628795407908,-8.525729843728703,0.016043400391936302,-0.021259305998682976,-1.000385046005249,0.08482039719820023,0.01438284944742918,0.01771070435643196
2024-06-15 18:46:18.954051,1.903681510605393,1.1321113254490183,-8.478450420520229,0.013829727657139301,-0.030128784477710724,-0.9986211657524109,0.08696742355823517,0.018023552373051643,0.024022528901696205
2024-06-15 18:46:18.980830,2.004934155852366,1.162444622439868,-8.429088643388546,0.01818764954805374,-0.03302285820245743,-0.9976485967636108,0.08739578723907471,0.026332542300224304,0.024706559255719185
2024-06-15 18:46:18.999486,2.1045759436722737,1.1978509357150389,-8.377563403837263,0.018034156411886215,-0.028565937653183937,-0.9995337128639221,0.08895990997552872,0.03288037329912186,0.026384394615888596
2024-06-15 18:46:19.023478,2.2042849661668242,1.2339492325304968,-8.322471951765586,0.017537551000714302,-0.029025623574852943,-1.0018867254257202,0.08945746719837189,0.033880557864904404,0.029868576675653458
2024-06-15 18:46:19.041557,2.3087554842865194,1.2742247236319464,-8.262656570109199,0.019377635791897774,-0.03675474971532822,-0.9986039400100708,0.0896650105714798,0.03601095452904701,0.03403579443693161
2024-06-15 18:46:19.063385,2.4161474023802763,1.3213516415228592,-8.201952410087065,0.02150498889386654,-0.04306275397539139,-0.9989880919456482,0.09102777391672134,0.0416158065199852,0.03391062468290329
2024-06-15 18:46:19.083078,2.5221263250894865,1.3681781378119973,-8.138990018770594,0.022541522979736328,-0.03911451995372772,-1.0027962923049927,0.09178777784109116,0.04365037381649017,0.036270081996917725
2024-06-15 18:46:19.098018,2.6267074068963714,1.4177394845334905,-8.072993315915346,0.02335725724697113,-0.03778309375047684,-0.9965360164642334,0.0935388058423996,0.044590968638658524,0.04042563959956169
2024-06-15 18:46:19.103811,2.7343943037849083,1.4731790628094263,-8.00538810351056,0.029552286490797997,-0.041355885565280914,-0.9957815408706665,0.0948285460472107,0.04862646013498306,0.04003699868917465
2024-06-15 18:46:19.143273,2.8454156136488806,1.5266382063911756,-7.936865938209699,0.026091590523719788,-0.04896926507353783,-1.0006828308105469,0.0951680839061737,0.04951155185699463,0.04191090539097786
2024-06-15 18:46:19.156710,2.953427584853227,1.5837979251208967,-7.869653461682189,0.023985642939805984,-0.04975416883826256,-0.9979139566421509,0.0931897684931755,0.05064471438527107,0.04304351657629013
2024-06-15 18:46:19.179214,3.060934335502405,1.6433391387151308,-7.799422895315179,0.03650979325175285,-0.047995150089263916,-0.9981825351715088,0.09371770918369293,0.050523679703474045,0.04321114346385002
2024-06-15 18:46:19.203294,3.170351618128482,1.7008546676119274,-7.7287295836319005,0.03261149674654007,-0.04995032027363777,-0.9995369911193848,0.09568510204553604,0.05243590101599693,0.04555481672286987
2024-06-15 18:46:19.219478,3.279599426685778,1.759059085119543,-7.6576017011626805,0.02733953855931759,-0.05536914989352226,-1.0000640153884888,0.09344644844532013,0.05340646952390671,0.04648666828870773
2024-06-15 18:46:19.239262,3.38880838854217,1.820350001080064,-7.584540875158346,0.02968059480190277,-0.05637191981077194,-0.9980332255363464,0.09396618604660034,0.056800518184900284,0.046861231327056885
2024-06-15 18:46:19.263221,3.495590071922268,1.8896977654968496,-7.5107722708012705,0.041561808437108994,-0.05242316797375679,-0.9996978640556335,0.09299926459789276,0.06091689690947533,0.04713153466582298
2024-06-15 18:46:19.287279,3.5994354142894958,1.9561533716869581,-7.440394001593459,0.0479038842022419,-0.05986356362700462,-1.0081865787506104,0.08891575783491135,0.05472094938158989,0.04605288431048393
2024-06-15 18:46:19.298487,3.692848496473175,2.0096358873222737,-7.378257209392914,0.04350222274661064,-0.06547782570123672,-1.0056190490722656,0.08094092458486557,0.0467565692961216,0.040997639298439026
2024-06-15 18:46:19.313385,3.780429877766133,2.052803750093812,-7.315186388823371,0.045189205557107925,-0.07273335009813309,-1.0056254863739014,0.07284974306821823,0.04064163938164711,0.038646548986434937
2024-06-15 18:46:19.341321,3.855327597770377,2.101231498856495,-7.265074998430279,0.044939737766981125,-0.06740477681159973,-1.005528450012207,0.06660528481006622,0.041671596467494965,0.03038528375327587
2024-06-15 18:46:19.356452,3.92172642801301,2.139248758663609,-7.217425891232978,0.04627830535173416,-0.06316967308521271,-1.003699779510498,0.060189567506313324,0.033896226435899734,0.029375342652201653
2024-06-15 18:46:19.383073,3.982744349850142,2.1754171716397654,-7.173829647534433,0.04727371037006378,-0.06320035457611084,-1.0032000541687012,0.05547446385025978,0.030197998508810997,0.02628229558467865
2024-06-15 18:46:19.400481,4.041675648895835,2.2058356325518287,-7.131071382669683,0.048198800534009933,-0.07125133275985718,-0.9989967346191406,0.05002874508500099,0.02653609588742256,0.023543069139122963
2024-06-15 18:46:19.408905,4.097300709496419,2.231827917438312,-7.092494474237451,0.04632507637143135,-0.0728849247097969,-1.0028076171875,0.046509478241205215,0.021633431315422058,0.02108628861606121
2024-06-15 18:46:19.443198,4.145030498303291,2.2537248635871383,-7.057768084949814,0.042820438742637634,-0.07053419947624207,-1.0038813352584839,0.04264045134186745,0.019908415153622627,0.018821613863110542
2024-06-15 18:46:19.460479,4.186095730027524,2.276472168287631,-7.026839280840703,0.046561796218156815,-0.06675325334072113,-1.0007243156433105,0.038957517594099045,0.01907719112932682,0.016492418944835663
2024-06-15 18:46:19.471859,4.226041237614697,2.2968532393275374,-6.9982668919952475,0.05286373570561409,-0.06758271902799606,-0.9991901516914368,0.03643471375107765,0.014826158061623573,0.014523286372423172
2024-06-15 18:46:19.503174,4.267529514180647,2.3087520691919345,-6.9735514255967335,0.04925387725234032,-0.07210063934326172,-0.9985945820808411,0.03656574338674545,0.00970335304737091,0.011660262010991573
2024-06-15 18:46:19.520567,4.311003241360955,2.313989543624865,-6.948659228053446,0.047112151980400085,-0.07294056564569473,-0.9979671835899353,0.03825132176280022,0.003990732133388519,0.011632370762526989
2024-06-15 18:46:19.532844,4.3510405296151005,2.317752550970719,-6.929146231368365,0.04975895956158638,-0.07196183502674103,-0.9996110796928406,0.03687184676527977,0.0006855614483356476,0.007634526118636131
2024-06-15 18:46:19.562580,4.391212714105353,2.3143519705376985,-6.910278260673028,0.046064212918281555,-0.07200566679239273,-0.9985105395317078,0.03665731102228165,-0.0033458792604506016,0.007715137209743261
2024-06-15 18:46:19.580547,4.43098533252916,2.3086587944210817,-6.88976037240631,0.04632086679339409,-0.07344423979520798,-0.9990484714508057,0.035819411277770996,-0.0057394602335989475,0.00872066430747509
2024-06-15 18:46:19.594677,4.469416245667884,2.301829032137892,-6.8727041093883185,0.04892377182841301,-0.07295023649930954,-0.9996805787086487,0.03537100553512573,-0.008467218838632107,0.007482228800654411
2024-06-15 18:46:19.622597,4.506030755374207,2.2914554688925235,-6.8549336647152375,0.04330797120928764,-0.07389846444129944,-0.9996037483215332,0.03284701704978943,-0.008365217596292496,0.007336863782256842
2024-06-15 18:46:19.641353,4.54168263529438,2.2798996425905083,-6.8368362247356425,0.04312993958592415,-0.07526303082704544,-0.9997146129608154,0.031744007021188736,-0.011297975666821003,0.008184402249753475
2024-06-15 18:46:19.656967,4.577147965672848,2.267812555637113,-6.818286711610358,0.04643828421831131,-0.07742912322282791,-0.9974113702774048,0.03162451833486557,-0.011741801165044308,0.00815584510564804
2024-06-15 18:46:19.683210,4.609883354817427,2.2534943447026503,-6.798873179555065,0.0449221096932888,-0.07802671939134598,-0.9986593127250671,0.029157541692256927,-0.012868234887719154,0.008254368789494038
2024-06-15 18:46:19.695227,4.638106123354743,2.2385210759381016,-6.779922392816042,0.04293253645300865,-0.0776795968413353,-1.0001715421676636,0.02601047419011593,-0.013085647486150265,0.008256965316832066
2024-06-15 18:46:19.719379,4.66459317006923,2.224737967636427,-6.76189496227544,0.03955559805035591,-0.07754074037075043,-0.9991280436515808,0.024104762822389603,-0.012312395498156548,0.008864461444318295
2024-06-15 18:46:19.742654,4.686461301357495,2.214063662624167,-6.745186612018296,0.04230832681059837,-0.07758820056915283,-1.000127911567688,0.020651526749134064,-0.01015029288828373,0.007033797912299633
2024-06-15 18:46:19.752776,4.706175361736267,2.2029567078166683,-6.72641298331087,0.042733825743198395,-0.07926051318645477,-0.9988358616828918,0.018816720694303513,-0.009880517609417439,0.007945878431200981
2024-06-15 18:46:19.779454,4.724713775804151,2.1946396718417085,-6.710642930290956,0.04159772768616676,-0.0791703537106514,-0.9981759786605835,0.016925295814871788,-0.007761925924569368,0.00607146043330431
2024-06-15 18:46:19.803494,4.739269762699094,2.1851642784721967,-6.694518561207849,0.03965655341744423,-0.07931870222091675,-1.0000369548797607,0.014475749805569649,-0.007246054243296385,0.005869436077773571
2024-06-15 18:46:19.813187,4.751077879113577,2.177672841613162,-6.6793525530426585,0.038365378975868225,-0.07896173000335693,-0.999236524105072,0.011512723751366138,-0.005580574739724398,0.0055598607286810875
2024-06-15 18:46:19.839216,4.761309075603433,2.1721935357949307,-6.663192752353232,0.040332596749067307,-0.07998663187026978,-0.9987474679946899,0.009996367618441582,-0.005160240922123194,0.006136548705399036
2024-06-15 18:46:19.863425,4.768152925151786,2.1689718209408,-6.649662147607437,0.04616660252213478,-0.07908159494400024,-1.0000265836715698,0.006735001225024462,-0.005469106137752533,0.004151162225753069
2024-06-15 18:46:19.875919,4.7671249816816985,2.1667806108776957,-6.642778597584533,0.06581999361515045,-0.0786314383149147,-1.0028611421585083,0.00047759508015587926,-0.011709626764059067,-0.0010284875752404332
2024-06-15 18:46:19.899213,4.755480362920474,2.1440433380175463,-6.64565154590417,0.06464459002017975,-0.0854647234082222,-1.013157844543457,-0.009204475209116936,-0.02745908871293068,-0.0073464796878397465
2024-06-15 18:46:19.923218,4.724205353597808,2.105759700832802,-6.657803306211268,0.05867139622569084,-0.08805631101131439,-1.0176962614059448,-0.02541312202811241,-0.04110187292098999,-0.013532858341932297
2024-06-15 18:46:19.941281,4.676699680373077,2.0381993115444437,-6.667935038071336,0.060432203114032745,-0.09204379469156265,-1.0205795764923096,-0.042909760028123856,-0.06123703718185425,-0.015398146584630013
2024-06-15 18:46:19.983232,4.539406047866651,1.8713394976683249,-6.7125190978785945,0.04451402276754379,-0.07985736429691315,-1.009477972984314,-0.06288641691207886,-0.08268170803785324,-0.02223181165754795
2024-06-15 18:46:20.000466,4.452723690223196,1.773101527166266,-6.741143993803295,0.046522390097379684,-0.07643114030361176,-1.0109797716140747,-0.07205883413553238,-0.09256859868764877,-0.02499411627650261
2024-06-15 18:46:20.019348,4.358237414566178,1.65889628193201,-6.76992256898432,0.03590510040521622,-0.07619229704141617,-1.0050930976867676,-0.07938648760318756,-0.09925305098295212,-0.027027186006307602
2024-06-15 18:46:20.043143,4.257337591278518,1.5372542413520796,-6.798315665364063,0.025614658370614052,-0.0827605202794075,-1.0066800117492676,-0.08812270313501358,-0.10682953149080276,-0.025528037920594215
2024-06-15 18:46:20.052593,4.142497351894863,1.4191548277955641,-6.830137516707153,0.02296512946486473,-0.07288430631160736,-1.0118582248687744,-0.09788413345813751,-0.10335662215948105,-0.028976932168006897
2024-06-15 18:46:20.064216,4.008436960186791,1.3051341043906044,-6.867153300027214,0.03765268251299858,-0.07129174470901489,-1.0228244066238403,-0.11309921741485596,-0.11012750118970871,-0.03324401006102562
2024-06-15 18:46:20.102710,3.8515748357082784,1.159336993089218,-6.906450366530059,0.04099481180310249,-0.06843937933444977,-1.024900197982788,-0.13217376172542572,-0.1302555948495865,-0.035059165209531784
2024-06-15 18:46:20.111733,3.6799906653606262,0.9903996277666515,-6.940562465679219,0.04262666404247284,-0.0737718939781189,-1.0203676223754883,-0.14865534007549286,-0.15311335027217865,-0.028834443539381027
2024-06-15 18:46:20.125645,3.492812746251012,0.8060497804993925,-6.981513291734853,0.014521199278533459,-0.07120709866285324,-1.0238834619522095,-0.1635027378797531,-0.1605842411518097,-0.032277535647153854
2024-06-15 18:46:20.163635,3.2842198362158803,0.6114130813727126,-7.016880011257179,0.004746855236589909,-0.06558110564947128,-1.015815258026123,-0.17991186678409576,-0.1693323701620102,-0.029083864763379097
2024-06-15 18:46:20.172836,3.063115086838343,0.39380384138548813,-7.041019607331297,0.004779579117894173,-0.057927925139665604,-1.0172760486602783,-0.1918548345565796,-0.18399450182914734,-0.022129610180854797
2024-06-15 18:46:20.199362,2.8284462220993953,0.17995564773277387,-7.061957125345147,0.013745542615652084,-0.05260579288005829,-1.0095999240875244,-0.2023734599351883,-0.19360432028770447,-0.016020845621824265
2024-06-15 18:46:20.220314,2.589840820520993,-0.04373495523563457,-7.068845371123105,0.005716890562325716,-0.0541871003806591,-1.0028412342071533,-0.20880213379859924,-0.19408823549747467,-0.0101608382537961
2024-06-15 18:46:20.225867,2.3412932248319906,-0.29754900030068676,-7.062150931962846,-0.02399606630206108,-0.05651680752635002,-1.0128469467163086,-0.2209109663963318,-0.20816074311733246,0.0046201408840715885
2024-06-15 18:46:20.259470,2.0710561499902016,-0.5438301204435818,-7.044712605238158,-0.022364167496562004,-0.0414033979177475,-0.9969155192375183,-0.23175674676895142,-0.2108766883611679,0.0153663270175457
2024-06-15 18:46:20.281740,1.8078932301378416,-0.7837098325498675,-7.001605146952092,-0.015365300700068474,-0.03109678439795971,-0.9863386750221252,-0.22882910072803497,-0.2019025981426239,0.029894309118390083
2024-06-15 18:46:20.301436,1.5560223205308052,-0.9994727870270729,-6.959003976438253,-0.03768621385097504,-0.021856049075722694,-0.9835835695266724,-0.21660512685775757,-0.18338949978351593,0.03708562254905701
2024-06-15 18:46:20.318889,1.311081384888687,-1.1953615452059807,-6.905004500860132,-0.05939440429210663,-0.017873870208859444,-0.991241455078125,-0.211496964097023,-0.16227008402347565,0.047027334570884705
2024-06-15 18:46:20.334682,1.0686360296145625,-1.3686204992824613,-6.833833929708599,-0.04625382646918297,-0.011426796205341816,-0.9862608909606934,-0.20811906456947327,-0.14214983582496643,0.056672535836696625
2024-06-15 18:46:20.361371,0.8415574793950559,-1.5084418353903213,-6.7540005442553745,-0.022868651896715164,-0.013346194289624691,-0.990202784538269,-0.1971336454153061,-0.12548694014549255,0.06353570520877838
2024-06-15 18:46:20.379453,0.618709324231873,-1.6296626453975323,-6.678532076568611,-0.0340563990175724,-0.005795314908027649,-0.9879199266433716,-0.19025634229183197,-0.1093285083770752,0.06605374068021774
2024-06-15 18:46:20.394266,0.4042259896874136,-1.7463280393934624,-6.588025239876772,-0.03896726667881012,-0.008251366205513477,-0.9929692149162292,-0.18609361350536346,-0.09805198758840561,0.07305189222097397
2024-06-15 18:46:20.406697,0.19022256931364018,-1.845623195112992,-6.498469080140034,-0.04548334330320358,0.003838764503598213,-0.9936630725860596,-0.18156886100769043,-0.08006300777196884,0.07456937432289124
2024-06-15 18:46:20.438958,-0.017850747754101257,-1.9231020862932664,-6.399851393808805,-0.040816839784383774,0.007578608579933643,-0.990384578704834,-0.17700856924057007,-0.06924375146627426,0.08231356739997864
2024-06-15 18:46:20.455397,-0.2208624510847736,-1.9822005115302133,-6.304539519035862,-0.03531995415687561,0.007951649837195873,-0.995090126991272,-0.17314982414245605,-0.0551491305232048,0.08136695623397827
2024-06-15 18:46:20.481487,-0.41432255674542623,-2.03504269693084,-6.205228568503877,-0.030654922127723694,0.006680950988084078,-0.989784300327301,-0.16646553575992584,-0.047633543610572815,0.0827786773443222
2024-06-15 18:46:20.498565,-0.5996492544661293,-2.06361017657783,-6.115676677635371,-0.02981502376496792,0.014166547916829586,-0.9876707792282104,-0.15773704648017883,-0.030819136649370193,0.07853702455759048
2024-06-15 18:46:20.522807,-0.7768276165482864,-2.0795836411689628,-6.031181261186789,-0.031634170562028885,0.020298557355999947,-0.9873776435852051,-0.1493786871433258,-0.018087683245539665,0.07437919825315475
2024-06-15 18:46:20.541495,-0.9460137501670294,-2.0908950747647386,-5.950721205877215,-0.036669474095106125,0.022817861288785934,-0.9948822855949402,-0.14372482895851135,-0.01126942504197359,0.07055803388357162
2024-06-15 18:46:20.550982,-1.1066080394184252,-2.0892669284213365,-5.871350138853436,-0.027870669960975647,0.021228326484560966,-0.9911215305328369,-0.13718409836292267,-0.003939155023545027,0.06891201436519623
2024-06-15 18:46:20.583132,-1.2603822780618577,-2.0733963435545775,-5.801861501785019,-0.0290459543466568,0.028951257467269897,-0.9894915819168091,-0.12963292002677917,0.008217315189540386,0.06354984641075134
2024-06-15 18:46:20.601264,-1.4107035359147313,-2.052133324338093,-5.7361239192314075,-0.03513207659125328,0.0340895876288414,-0.9950116872787476,-0.1261945515871048,0.01705862581729889,0.06070321425795555
2024-06-15 18:46:20.612391,-1.5557074914987499,-2.0210282159710315,-5.673782648242586,-0.03480365872383118,0.03700055927038193,-0.9936079978942871,-0.12148987501859665,0.024388501420617104,0.05895349383354187
2024-06-15 18:46:20.642956,-1.6919906828948374,-1.9780708084032943,-5.6128518113173715,-0.02749386616051197,0.031513772904872894,-0.9974156618118286,-0.11701023578643799,0.03104497119784355,0.05742337554693222
2024-06-15 18:46:20.657297,-1.8225960660999403,-1.9287816020315436,-5.560913345321302,-0.024869725108146667,0.03378203138709068,-0.9919653534889221,-0.11283881962299347,0.03697039559483528,0.05099981278181076
2024-06-15 18:46:20.679618,-1.9526896120041153,-1.8719710767231394,-5.5155297264943295,-0.025765301659703255,0.04909325763583183,-0.9877036213874817,-0.10592669248580933,0.043868277221918106,0.04711155220866203
2024-06-15 18:46:20.702603,-2.069522772521534,-1.8077973940460499,-5.475882185909698,-0.023243272677063942,0.05241011083126068,-0.985903799533844,-0.09573622792959213,0.05179959908127785,0.042287152260541916
2024-06-15 18:46:20.739103,-2.2676482042102095,-1.6439165031434084,-5.426218172907243,-0.023546943441033363,0.04133068025112152,-0.9924772381782532,-0.08257561922073364,0.07227920740842819,0.026952488347887993
2024-06-15 18:46:20.763527,-2.357741601013851,-1.5448423680765522,-5.4125116907903195,-0.019795041531324387,0.0475577749311924,-0.9920946359634399,-0.07662834972143173,0.07918260246515274,0.021628988906741142
2024-06-15 18:46:20.766691,-2.442846611845856,-1.444511691645825,-5.404165626511387,-0.01912483014166355,0.05141862481832504,-0.9963760375976562,-0.07049296796321869,0.08356194943189621,0.017064779996871948
2024-06-15 18:46:20.799449,-2.5243158276052986,-1.3415290875481345,-5.398209274668313,-0.021655866876244545,0.056484971195459366,-0.9905282855033875,-0.06596452742815018,0.08761981874704361,0.014340572990477085
2024-06-15 18:46:20.814025,-2.5931005283023816,-1.2276062279473763,-5.397758482183092,-0.020812373608350754,0.051630765199661255,-0.9934018850326538,-0.059030067175626755,0.09712567925453186,0.010494093410670757
2024-06-15 18:46:20.825983,-2.6602630590715863,-1.1083320218536188,-5.401804515492678,-0.018185347318649292,0.0515744648873806,-0.9941034317016602,-0.058115724474191666,0.10275667160749435,0.005743044428527355
2024-06-15 18:46:20.865364,-2.72454111557693,-0.9828619804090134,-5.4109748982270665,-0.006628673058003187,0.054077714681625366,-0.9908576607704163,-0.054645612835884094,0.10443443804979324,0.003074530279263854
2024-06-15 18:46:20.875493,-2.7796656513773987,-0.8586038706552622,-5.427214953639242,-0.005269229877740145,0.05671536549925804,-0.9929764270782471,-0.04541436582803726,0.1042642593383789,-0.00305515481159091
2024-06-15 18:46:20.901512,-2.8244356203961285,-0.7390744396021284,-5.447618009350538,-0.008650548756122589,0.05187666416168213,-1.0012598037719727,-0.040982604026794434,0.10428529977798462,-0.007025083992630243
2024-06-15 18:46:20.918783,-2.8672002885632244,-0.6241558664864292,-5.47343655130001,-0.00829241145402193,0.04910973459482193,-1.001743197441101,-0.03802776336669922,0.1008531004190445,-0.012904348783195019
2024-06-15 18:46:20.937967,-2.905576773631999,-0.4974827512525496,-5.509483728418399,0.002784877084195614,0.05759778246283531,-0.9881897568702698,-0.031572695821523666,0.10535939037799835,-0.020413020625710487
2024-06-15 18:46:20.946101,-2.9340584490275408,-0.3735865348031033,-5.54966658507923,0.00459683733060956,0.06532595306634903,-0.9910155534744263,-0.021145058795809746,0.10600931197404861,-0.02463572844862938
2024-06-15 18:46:20.979499,-2.957921422440273,-0.24991184593443283,-5.596148583702106,-0.0010556746274232864,0.06910959631204605,-0.9897019267082214,-0.015227052383124828,0.10605257004499435,-0.0273357555270195
2024-06-15 18:46:21.000679,-2.9683963713061337,-0.1311171004441117,-5.6412137449590265,0.002561262808740139,0.06143497675657272,-0.9870346188545227,-0.007968769408762455,0.10554292798042297,-0.030085908249020576
2024-06-15 18:46:21.021440,-2.9688172817137355,-0.007826469644015637,-5.693121475103831,0.008861646056175232,0.05722611024975777,-0.9920673966407776,-0.0005372980958782136,0.10587809979915619,-0.034752409905195236
2024-06-15 18:46:21.039459,-2.9669108051616555,0.1163356239250653,-5.748238540384895,0.012004668824374676,0.06090736389160156,-0.993340015411377,0.004591439850628376,0.10587307065725327,-0.038257896900177
2024-06-15 18:46:21.063237,-2.9592868199440403,0.23754818968050484,-5.805114379377238,0.011393800377845764,0.0631059929728508,-0.9896858334541321,0.010425876826047897,0.10658575594425201,-0.04090747982263565
2024-06-15 18:46:21.086573,-2.942119779795448,0.36619536298665034,-5.867669093777622,0.009407627396285534,0.06401773542165756,-0.99137943983078,0.018909325823187828,0.11439419537782669,-0.04526810720562935
2024-06-15 18:46:21.099162,-2.9143578355836968,0.5107940428929639,-5.929919010986295,0.005940898321568966,0.06757228076457977,-0.9927616715431213,0.02928226627409458,0.12629960477352142,-0.04242150858044624
2024-06-15 18:46:21.116294,-2.881351800193256,0.6699846749090693,-5.991753567316067,0.011850360780954361,0.06667956709861755,-0.9898961782455444,0.034990862011909485,0.13736066222190857,-0.04213296249508858
2024-06-15 18:46:21.141430,-2.834485816872979,0.8293591884242362,-6.046922285902729,0.013348137959837914,0.06177687644958496,-0.9928054213523865,0.04391387850046158,0.14067542552947998,-0.03956487402319908
2024-06-15 18:46:21.158676,-2.77814166541884,0.9969572497000984,-6.0992731245699385,0.01421749871224165,0.05314188450574875,-0.9961146116256714,0.04977293685078621,0.14650945365428925,-0.036212485283613205
2024-06-15 18:46:21.174921,-2.71274836708808,1.173953597913045,-6.149589420638129,0.01842321828007698,0.046725351363420486,-0.9939651489257812,0.055580176413059235,0.15414926409721375,-0.037081021815538406
2024-06-15 18:46:21.201578,-2.647626141890005,1.348701746672,-6.196887199979999,0.008205875754356384,0.05967241898179054,-0.9925757646560669,0.06130630522966385,0.15740849077701569,-0.03163270652294159
2024-06-15 18:46:21.219568,-2.575790054181219,1.5307962974918325,-6.230812322700629,0.01845463365316391,0.06079889088869095,-0.9905505180358887,0.06868165731430054,0.1610359400510788,-0.022629452869296074
2024-06-15 18:46:21.242173,-2.4907847214224135,1.7191864684574183,-6.2559640674323775,0.022360483184456825,0.05307944491505623,-0.9877658486366272,0.07674791663885117,0.1657494604587555,-0.016612907871603966
2024-06-15 18:46:21.260164,-2.3908398439580867,1.9057337690075702,-6.275159033434229,0.022960705682635307,0.036250293254852295,-0.9983671307563782,0.08275055885314941,0.16550515592098236,-0.012390263378620148
2024-06-15 18:46:21.271275,-2.299994912902332,2.0797744595789,-6.281894453729508,0.021507082507014275,0.035001836717128754,-1.0110645294189453,0.07643545418977737,0.158253014087677,-0.0035384204238653183
2024-06-15 18:46:21.309120,-2.2204289720437957,2.2437542815028007,-6.277336583118994,0.04022473469376564,0.03815470635890961,-1.0030890703201294,0.07021907716989517,0.1436445564031601,0.0047531574964523315
2024-06-15 18:46:21.321143,-2.1418452977652715,2.3920419572520086,-6.271755037906624,0.04948176071047783,0.03852657601237297,-0.9999694228172302,0.06900861114263535,0.12774372100830078,0.007480094209313393
2024-06-15 18:46:21.331052,-2.065740768712051,2.523053309825904,-6.261259598473253,0.04924221336841583,0.0320485383272171,-1.005065679550171,0.06437937170267105,0.11387155950069427,0.010797244496643543
2024-06-15 18:46:21.362754,-1.9958297271321506,2.6371225916069947,-6.2453695902560415,0.046686623245477676,0.02853560447692871,-1.0074739456176758,0.05753083899617195,0.10119224339723587,0.013983964920043945
2024-06-15 18:46:21.376531,-1.936182752327487,2.7386951885279007,-6.227592315393791,0.04911166429519653,0.03432959318161011,-1.0065099000930786,0.052782244980335236,0.09076160937547684,0.01611972227692604
2024-06-15 18:46:21.383970,-1.8817102861493429,2.8365212132456428,-6.2075457101798035,0.055455513298511505,0.035512179136276245,-1.0042606592178345,0.048720505088567734,0.08249342441558838,0.018519779667258263
2024-06-15 18:46:21.423490,-1.8294964781523573,2.924739082791881,-6.1858713855092375,0.058525003492832184,0.029550936073064804,-1.0022773742675781,0.045379284769296646,0.07415001094341278,0.01974027417600155
2024-06-15 18:46:21.438346,-1.7788098577651041,3.0016282298260073,-6.1649074005123525,0.0632905662059784,0.024901622906327248,-1.0038772821426392,0.04199187085032463,0.06483390927314758,0.0189833901822567
2024-06-15 18:46:21.459563,-1.7341865243701184,3.0676304822099563,-6.143858891924489,0.054303042590618134,0.030074555426836014,-0.9986146092414856,0.037864021956920624,0.059611935168504715,0.018209798261523247
2024-06-15 18:46:21.483317,-1.6909373396587746,3.131252840554979,-6.127029305809578,0.060862425714731216,0.04254302382469177,-0.9906078577041626,0.04292156174778938,0.05429791286587715,0.017312392592430115
2024-06-15 18:46:21.500592,-1.637363043356487,3.1895929013506428,-6.109817229101146,0.05994963273406029,0.04144131392240524,-0.9861468076705933,0.048795901238918304,0.0485239140689373,0.017982307821512222
2024-06-15 18:46:21.519556,-1.577675300860215,3.2501421014559826,-6.095691544123913,0.06459660828113556,0.037000153213739395,-0.9927518367767334,0.05412471294403076,0.04892797768115997,0.014390358701348305
2024-06-15 18:46:21.542712,-1.507640568823314,3.304294402516782,-6.078923429711532,0.06403318792581558,0.0301347803324461,-0.990759015083313,0.06037432700395584,0.04567716643214226,0.013317099772393703
2024-06-15 18:46:21.553178,-1.4311198251175457,3.3556362941775335,-6.069919105951339,0.06430336833000183,0.03314080461859703,-0.9943605661392212,0.0684608742594719,0.041712239384651184,0.01029985025525093
2024-06-15 18:46:21.564069,-1.3475649470620161,3.3963329091299967,-6.052602441971241,0.0672977939248085,0.03545646741986275,-0.9942939877510071,0.07507834583520889,0.03546798229217529,0.014130162075161934
2024-06-15 18:46:21.602915,-1.252800021031203,3.4376250312007204,-6.035164115246553,0.07003501057624817,0.03042076714336872,-0.991112470626831,0.08320140838623047,0.031042827293276787,0.015736110508441925
2024-06-15 18:46:21.612039,-1.1492599027425103,3.471186019461224,-6.019187449004247,0.06699874252080917,0.025381123647093773,-0.9954038858413696,0.09014741331338882,0.028702739626169205,0.01325833797454834
2024-06-15 18:46:21.719830,-0.6667983916612584,3.5592843606969873,-5.954201187259337,0.07228811085224152,0.004810026381164789,-1.011459469795227,0.06161436438560486,0.0025816988199949265,0.003640149487182498
2024-06-15 18:46:21.726706,-0.6109373693691917,3.5619485613601154,-5.957004126139981,0.0756407380104065,0.012029021978378296,-1.0083218812942505,0.05084962025284767,-0.0036964225582778454,-0.0007026401581242681
2024-06-15 18:46:21.765383,-0.5673061209511503,3.5546447412598448,-5.959127034311385,0.06841740757226944,0.01602531597018242,-1.0114628076553345,0.04198729619383812,-0.0057066031731665134,-0.0018718588398769498
2024-06-15 18:46:21.781845,-0.5298059811694003,3.5437518701941437,-5.960634798570665,0.07074449956417084,0.008844990283250809,-1.0064045190811157,0.03410589322447777,-0.012136805802583694,-0.0023607006296515465
2024-06-15 18:46:21.800685,-0.49714412328010504,3.5325249601893467,-5.969631011481219,0.06864332407712936,0.002691419795155525,-1.009833574295044,0.027023158967494965,-0.011150632053613663,-0.009346535429358482
2024-06-15 18:46:21.818720,-0.47706187301638664,3.5133489906511244,-5.979143330560931,0.06571613997220993,0.005410828627645969,-1.004122257232666,0.019555602222681046,-0.016908004879951477,-0.009120655246078968
2024-06-15 18:46:21.843456,-0.463651063385331,3.4948272251693426,-5.991030421037692,0.0746442973613739,0.008957547135651112,-1.0041040182113647,0.013207904994487762,-0.020780250430107117,-0.011689946055412292
2024-06-15 18:46:21.858576,-0.45694157646455713,3.4672198139875623,-6.004050469143029,0.07253942638635635,0.009838230907917023,-1.007789134979248,0.008203701116144657,-0.02605423517525196,-0.012393834069371223
2024-06-15 18:46:21.878668,-0.46253763582891316,3.4421286871846974,-6.031526612626697,0.08143552392721176,0.012238072231411934,-1.0031845569610596,-4.90819220431149e-05,-0.030325617641210556,-0.023493194952607155
2024-06-15 18:46:21.903493,-0.4747912620041805,3.412625258178004,-6.06878572143594,0.09193556010723114,0.0165928453207016,-1.0028483867645264,-0.004850477445870638,-0.03520161285996437,-0.033949725329875946
2024-06-15 18:46:21.909612,-0.4907734244143343,3.3673675709638538,-6.114803267195255,0.08660891652107239,0.019251812249422073,-1.003554344177246,-0.008118240162730217,-0.04570572450757027,-0.039389219135046005
2024-06-15 18:46:21.938898,-0.5110487342438114,3.305973775278959,-6.165973763796521,0.0726885125041008,0.015932077541947365,-1.0030556917190552,-0.012082269415259361,-0.055966973304748535,-0.044173628091812134
2024-06-15 18:46:21.954216,-0.5303698986627494,3.2427661374826036,-6.223004135818835,0.06701776385307312,0.003024029079824686,-1.0064048767089844,-0.016153328120708466,-0.05673848092556,-0.05220165476202965
2024-06-15 18:46:21.987107,-0.5603266281147493,3.169379383388813,-6.280977073946611,0.05874553322792053,0.0015719381626695395,-1.0120066404342651,-0.02565540000796318,-0.06155846640467644,-0.0536680594086647
2024-06-15 18:46:21.998550,-0.6032740572029961,3.102586536608435,-6.344513628040185,0.07249663025140762,0.005220838822424412,-1.0062799453735352,-0.0346195325255394,-0.06558627635240555,-0.05775367096066475
2024-06-15 18:46:22.022810,-0.653985703830255,3.0180038218045246,-6.413385413649185,0.06065274402499199,0.011197327636182308,-1.0024675130844116,-0.038532037287950516,-0.07203159481287003,-0.06286945939064026
2024-06-15 18:46:22.040647,-0.7089555998790464,2.9241399471356244,-6.479953717960599,0.051178719848394394,0.008876034058630466,-1.0063737630844116,-0.046182312071323395,-0.07781625539064407,-0.06303660571575165
2024-06-15 18:46:22.051283,-0.7707279374543475,2.8323336669541903,-6.547860312462512,0.042991604655981064,0.011075874790549278,-0.9992759227752686,-0.049952685832977295,-0.07770517468452454,-0.06340404599905014
2024-06-15 18:46:22.083124,-0.8321139958155728,2.749623491199921,-6.608857316845311,0.03796058148145676,0.011093066073954105,-1.0020067691802979,-0.051449134945869446,-0.06766247749328613,-0.05916629731655121
2024-06-15 18:46:22.101030,-0.8996652603980864,2.6742722039461055,-6.655277843765656,0.03475101292133331,0.01154298335313797,-1.0076909065246582,-0.05736249312758446,-0.06180495023727417,-0.04879685863852501
2024-06-15 18:46:22.111854,-0.9720296205504906,2.610284003593664,-6.693272905457968,0.03999532759189606,0.012334209866821766,-1.0027068853378296,-0.06131921336054802,-0.056647319346666336,-0.038674674928188324
2024-06-15 18:46:22.143395,-1.0459964071152033,2.5483792243814882,-6.7230132566514955,0.03896040469408035,0.012634641490876675,-1.0040953159332275,-0.06398668140172958,-0.052168041467666626,-0.033318936824798584
2024-06-15 18:46:22.157599,-1.124537712876532,2.491215663670359,-6.750329744463316,0.032559238374233246,0.017175739631056786,-1.0004678964614868,-0.06709696352481842,-0.04532289505004883,-0.029872585088014603
2024-06-15 18:46:22.179540,-1.2074160820391129,2.4333515816824804,-6.7636955708953845,0.031920719891786575,0.02078491449356079,-1.005560040473938,-0.07116810232400894,-0.04529893025755882,-0.019469918683171272
2024-06-15 18:46:22.202614,-1.2907678686885402,2.3885320937922683,-6.77195326960193,0.039306849241256714,0.02103441394865513,-1.0039148330688477,-0.07309257984161377,-0.03910992667078972,-0.012868039309978485
2024-06-15 18:46:22.219518,-1.3802422795986495,2.3383509074035964,-6.768635078325773,0.03538748249411583,0.022897053509950638,-1.0072481632232666,-0.0783873051404953,-0.039341337978839874,-0.0053549958392977715
2024-06-15 18:46:22.238649,-1.4736236654357118,2.2968882440470337,-6.759414749833079,0.033467017114162445,0.02775813639163971,-0.9981530904769897,-0.07933229207992554,-0.0363493487238884,0.0028246743604540825
2024-06-15 18:46:22.258878,-1.5688594476324327,2.259225086859703,-6.744882668600231,0.032776106148958206,0.03251628950238228,-1.001451015472412,-0.08197491616010666,-0.031147556379437447,0.005343184806406498
2024-06-15 18:46:22.281470,-1.6665039387286407,2.2243877069980527,-6.723641207168314,0.03295047581195831,0.03650616481900215,-0.9957892298698425,-0.08203425258398056,-0.030188845470547676,0.013943437486886978
2024-06-15 18:46:22.297513,-1.753882442058908,2.201663881072832,-6.7041294911437035,0.0423571914434433,0.03898416459560394,-0.987821102142334,-0.0735587552189827,-0.0239646565169096,0.012085828930139542
2024-06-15 18:46:22.322617,-1.8350861342143665,2.177253852196264,-6.684835060512063,0.03876352682709694,0.0441892184317112,-0.9949443936347961,-0.06713756173849106,-0.02194301038980484,0.013112412765622139
2024-06-15 18:46:22.341362,-1.9090850440125193,2.155865968584015,-6.663548775963719,0.0315701961517334,0.04059472680091858,-0.9961966872215271,-0.06306702643632889,-0.017918139696121216,0.015398189425468445
2024-06-15 18:46:22.346632,-1.978644757736987,2.1399821502257392,-6.641472323905768,0.03921257704496384,0.04025217890739441,-0.9909799695014954,-0.0587167888879776,-0.015264561399817467,0.014791580848395824
2024-06-15 18:46:22.383613,-2.0412743907748303,2.1334894150894073,-6.624242317950765,0.04369441419839859,0.043164175003767014,-0.9919511675834656,-0.05385853350162506,-0.009977730922400951,0.012368430383503437
2024-06-15 18:46:22.401443,-2.1001822110452517,2.128858546832139,-6.606586705833105,0.03978050500154495,0.04551185667514801,-0.994411051273346,-0.050277210772037506,-0.006403262726962566,0.01271873526275158
2024-06-15 18:46:22.419489,-2.153014364605535,2.1249506114098335,-6.58938658195572,0.038583770394325256,0.045180756598711014,-0.9930709004402161,-0.044152166694402695,-0.0037016167771071196,0.011387649923563004
2024-06-15 18:46:22.442723,-2.2008376416266717,2.120749404740041,-6.572996262381805,0.03492410480976105,0.04309823736548424,-0.9971989393234253,-0.04145265370607376,-0.0026123409625142813,0.011497996747493744
2024-06-15 18:46:22.457912,-2.2443344206954285,2.1292032579418128,-6.558723728337418,0.04140786454081535,0.04151230677962303,-0.9962995648384094,-0.037768345326185226,0.002978724893182516,0.010702108964323997
2024-06-15 18:46:22.469409,-2.2862060416285455,2.1342155495755444,-6.54402516124355,0.04111597687005997,0.04039052501320839,-0.9992591738700867,-0.03706170618534088,0.0030895781237632036,0.009413277730345726
2024-06-15 18:46:22.503004,-2.332149522524048,2.1484392050786845,-6.530808318312752,0.03373883292078972,0.043062299489974976,-0.9978699088096619,-0.03882567211985588,0.012756035663187504,0.010835801251232624
2024-06-15 18:46:22.513086,-2.3772347474616558,2.176200082073378,-6.513963791159031,0.0321069210767746,0.04292989522218704,-1.0008540153503418,-0.03955996409058571,0.02458484284579754,0.011491011828184128
2024-06-15 18:46:22.539352,-2.4275264975375173,2.216515913979613,-6.502261969563507,0.033918675035238266,0.047275714576244354,-0.9999492764472961,-0.04180335998535156,0.033360015600919724,0.01141781359910965
2024-06-15 18:46:22.562893,-2.4785736238469003,2.265031387984448,-6.484136355053586,0.037683602422475815,0.047480955719947815,-1.001940131187439,-0.04331069439649582,0.04109329730272293,0.015219469554722309
2024-06-15 18:46:22.581306,-2.5331193011152107,2.3247340715195297,-6.4649687098084145,0.0390218123793602,0.04683754965662956,-0.9994907975196838,-0.04617401212453842,0.050600916147232056,0.016358518972992897
2024-06-15 18:46:22.599196,-2.5865367165099995,2.3901645090039016,-6.442826090292879,0.036920979619026184,0.0452149398624897,-0.9974631667137146,-0.04737382009625435,0.05653606727719307,0.018111050128936768
2024-06-15 18:46:22.615370,-2.644104965929452,2.4638874364709036,-6.422263805796556,0.03879738599061966,0.05110928416252136,-1.002345085144043,-0.048198189586400986,0.06390682607889175,0.01968858204782009
2024-06-15 18:46:22.641527,-2.7023344630379262,2.5408299443579203,-6.3978706389495015,0.0423194020986557,0.05398435518145561,-0.9951774477958679,-0.048991620540618896,0.06644608825445175,0.02208361029624939
2024-06-15 18:46:22.672652,-2.812647781105744,2.7121046217588063,-6.349689630770585,0.04357335343956947,0.060774970799684525,-0.9902875423431396,-0.041901592165231705,0.07513752579689026,0.02440664730966091
2024-06-15 18:46:22.701497,-2.8510033487201856,2.8022486046509885,-6.323593612386082,0.052902285009622574,0.06429322808980942,-0.9850590825080872,-0.030878549441695213,0.0718032643198967,0.027515461668372154
2024-06-15 18:46:22.719175,-2.875575594589541,2.887599929179937,-6.2933286172869325,0.058639589697122574,0.06563899666070938,-0.9936178922653198,-0.019524753093719482,0.07017289102077484,0.029624076560139656
2024-06-15 18:46:22.742458,-2.888120944547562,2.961473761138914,-6.250629262803774,0.052064452320337296,0.0552743636071682,-0.9983358383178711,-0.013382519595324993,0.06438127905130386,0.038271673023700714
2024-06-15 18:46:22.760769,-2.893669192587728,3.0380687831519064,-6.207425328095682,0.04664428159594536,0.0489899180829525,-0.9960325360298157,-0.008805328980088234,0.06626610457897186,0.03938983008265495
2024-06-15 18:46:22.770489,-2.895511209229516,3.1125626682214733,-6.162132636162035,0.0496961884200573,0.05387898162007332,-0.9961206316947937,-0.0030013187788426876,0.06534626334905624,0.04049475118517876
2024-06-15 18:46:22.802998,-2.8939494437871103,3.1928841987569427,-6.116365672967895,0.06003943085670471,0.06372324377298355,-0.9871327877044678,0.0028012613765895367,0.06447544693946838,0.04463985189795494
2024-06-15 18:46:22.821151,-2.8798359250843366,3.2700762219920763,-6.064793475866067,0.0618518702685833,0.061063967645168304,-0.9852254986763,0.012683222070336342,0.06269904971122742,0.04779183864593506
2024-06-15 18:46:22.831312,-2.852802890123072,3.347657352566489,-6.014741422741391,0.052588388323783875,0.052813511341810226,-0.989304780960083,0.019596068188548088,0.06590920686721802,0.04734688252210617
2024-06-15 18:46:22.863432,-2.824060813765424,3.429743419785349,-5.965371534760069,0.05135100334882736,0.05360454320907593,-0.9913595914840698,0.023232819512486458,0.0724412202835083,0.047323115170001984
2024-06-15 18:46:22.876551,-2.7902851014328878,3.5173361135791197,-5.914950224533389,0.06311453133821487,0.05683724954724312,-0.9926475286483765,0.028532467782497406,0.07240890711545944,0.047313105314970016
2024-06-15 18:46:22.889846,-2.7496094039347576,3.6085191389987896,-5.862833746732076,0.07276159524917603,0.0565439835190773,-0.9909939765930176,0.03512093424797058,0.07247294485569,0.05019508674740791
2024-06-15 18:46:22.923441,-2.7009543379387604,3.6876409041178637,-5.804923134080477,0.07044220715761185,0.050070591270923615,-0.9954941272735596,0.038362808525562286,0.06636794656515121,0.054305851459503174
2024-06-15 18:46:22.938022,-2.6476848388281846,3.7651639780843316,-5.748544191350253,0.06690400093793869,0.04504356160759926,-0.9933808445930481,0.04168019816279411,0.06473307311534882,0.054559376090765
2024-06-15 18:46:22.959303,-2.5946347595446957,3.844777516823646,-5.693793394963431,0.0681186243891716,0.05071553215384483,-0.9957632422447205,0.04410300403833389,0.06639997661113739,0.053272224962711334
2024-06-15 18:46:22.983449,-2.539550564549012,3.929408256395159,-5.640570426516576,0.0762939304113388,0.05344233289361,-0.9914190769195557,0.04737614095211029,0.06759771704673767,0.05411120504140854
2024-06-15 18:46:23.000459,-2.477084856051249,4.005334773643136,-5.582954365772933,0.07581966370344162,0.046544548124074936,-0.9948043823242188,0.05097440257668495,0.06286711990833282,0.05562886968255043
2024-06-15 18:46:23.019060,-2.412590154483169,4.078737109105971,-5.526643724934409,0.06991088390350342,0.041873496025800705,-0.9989585280418396,0.051690053194761276,0.06282400339841843,0.054450709372758865
2024-06-15 18:46:23.043518,-2.348191715893704,4.15537268536716,-5.468769397662776,0.07374013960361481,0.04075692966580391,-0.9927973747253418,0.05233149603009224,0.06452243030071259,0.05513940751552582
2024-06-15 18:46:23.051914,-2.28223663450371,4.231957035209574,-5.413457245103543,0.08077413588762283,0.046527065336704254,-0.9980119466781616,0.054396383464336395,0.06406772136688232,0.053727149963378906
2024-06-15 18:46:23.079238,-2.220505384785135,4.30507549093503,-5.363201140077412,0.08396734297275543,0.043876636773347855,-1.0012469291687012,0.052121516317129135,0.0566171370446682,0.052154023200273514
2024-06-15 18:46:23.103247,-2.1609664123467223,4.370231226748721,-5.3141962403298635,0.08986018598079681,0.03460784628987312,-1.002400517463684,0.046503111720085144,0.05135173723101616,0.048086103051900864
2024-06-15 18:46:23.111926,-2.1048598234096527,4.42399420702683,-5.267680944534784,0.08811502158641815,0.030887629836797714,-1.00018310546875,0.04408552870154381,0.04303688928484917,0.04545663297176361
2024-06-15 18:46:23.138927,-2.0585808094711733,4.47608848671334,-5.232249338215343,0.08597329258918762,0.03656177595257759,-1.003231167793274,0.0391877181828022,0.04125925526022911,0.0377979502081871
2024-06-15 18:46:23.158995,-2.018658140329037,4.52113571872369,-5.199290260375446,0.08323226869106293,0.040627364069223404,-1.0009965896606445,0.03421248868107796,0.03710939362645149,0.03610987216234207
2024-06-15 18:46:23.166427,-1.9824103264037796,4.564437410514278,-5.168455371367424,0.0912148579955101,0.03950205445289612,-0.999541163444519,0.032085832208395004,0.03364678844809532,0.032688841223716736
2024-06-15 18:46:23.199191,-1.9456592129140566,4.602228420305136,-5.139709239584955,0.08975764364004135,0.03250665217638016,-0.9991939067840576,0.02929452806711197,0.029734143987298012,0.029921945184469223
2024-06-15 18:46:23.219252,-1.9142512283459876,4.639071741348654,-5.1161758227996765,0.08663857728242874,0.03388172388076782,-0.9996721744537354,0.02613595686852932,0.029682010412216187,0.027098817750811577
2024-06-15 18:46:23.241024,-1.88720816154438,4.668308366090893,-5.092692778659527,0.08858857303857803,0.036550138145685196,-0.99933260679245,0.023061776533722878,0.024570079520344734,0.02585747092962265
2024-06-15 18:46:23.259172,-1.8646130419963316,4.699892868360324,-5.07639509352623,0.09357673674821854,0.04044320806860924,-0.998683750629425,0.021579232066869736,0.022526804357767105,0.02151092141866684
2024-06-15 18:46:23.282069,-1.8431843906924743,4.727246922212579,-5.067628972613342,0.10492453724145889,0.03748932480812073,-0.9962679147720337,0.02037033624947071,0.015086010098457336,0.01477533858269453
2024-06-15 18:46:23.301197,-1.8212878714304714,4.736806198842835,-5.067333140044916,0.10728228837251663,0.03429684787988663,-0.9976212978363037,0.018223296850919724,0.002622816478833556,0.006708312314003706
2024-06-15 18:46:23.562957,-1.5350236509795414,3.8070415754329723,-5.787889922950934,0.0752415657043457,0.03275380656123161,-0.9948294758796692,0.02509498968720436,-0.1471291482448578,-0.09270880371332169
2024-06-15 18:46:23.579037,-1.5161650717943131,3.6274374823392557,-5.895672869374675,0.0726737380027771,0.03523453325033188,-0.999328076839447,0.025496352463960648,-0.15479780733585358,-0.09655573964118958
2024-06-15 18:46:23.596875,-1.4922829951962462,3.4341294684495547,-6.001101961855698,0.08002190291881561,0.03042035549879074,-0.9973874092102051,0.026843324303627014,-0.170221209526062,-0.09533204883337021
2024-06-15 18:46:23.603922,-1.4663382014688353,3.237062289195408,-6.112526679767525,0.07748473435640335,0.028827516362071037,-0.9928680658340454,0.02864767611026764,-0.1761527806520462,-0.10006985813379288
2024-06-15 18:46:23.643446,-1.4384219376705238,3.0066928150955716,-6.211691208119178,0.04971858486533165,0.02258303388953209,-1.004576563835144,0.026760678738355637,-0.1910180151462555,-0.09515780955553055
2024-06-15 18:46:23.656659,-1.4156047302527444,2.773985068422064,-6.313047800307582,0.03975629061460495,0.023569416254758835,-0.9988446831703186,0.02621646039187908,-0.19840583205223083,-0.09377717971801758
2024-06-15 18:46:23.679515,-1.3907634389631136,2.532297757424105,-6.396027341647244,0.02823667787015438,0.024497387930750847,-0.9956334233283997,0.024617787450551987,-0.19469377398490906,-0.08366988599300385
2024-06-15 18:46:23.703351,-1.370442025356739,2.32071898750462,-6.468140052017415,0.02092486061155796,0.024683674797415733,-0.9996132254600525,0.021821442991495132,-0.18278725445270538,-0.06904694437980652
2024-06-15 18:46:23.719701,-1.3485988669476268,2.1302516919794097,-6.528953921953094,0.013708086684346199,0.02064421772956848,-0.9957645535469055,0.01989738456904888,-0.16078931093215942,-0.061969857662916183
2024-06-15 18:46:23.739200,-1.3317423869628584,1.9453883532247833,-6.580823232283817,0.004090356174856424,0.0305568128824234,-1.0026037693023682,0.019202856346964836,-0.14915427565574646,-0.052847977727651596
2024-06-15 18:46:23.763437,-1.3182952385909843,1.792603851680768,-6.620518157305815,0.018152419477701187,0.02884552627801895,-0.9998303055763245,0.015802543610334396,-0.1340295672416687,-0.040874380618333817
2024-06-15 18:46:23.781978,-1.3036392534577235,1.6619611158786416,-6.655464393307362,0.025501707568764687,0.02631669119000435,-0.9958279132843018,0.015699194744229317,-0.11597256362438202,-0.03878806531429291
2024-06-15 18:46:23.799343,-1.2871995217340317,1.5274654063326876,-6.682249407024391,0.015798646956682205,0.020234212279319763,-1.0011217594146729,0.014169273898005486,-0.11317144334316254,-0.031511057168245316
2024-06-15 18:46:23.821064,-1.2749931199135727,1.4053257224386981,-6.7026477669806335,0.011437456123530865,0.023921329528093338,-1.006231427192688,0.011812034994363785,-0.10228101909160614,-0.025514815002679825
2024-06-15 18:46:23.826061,-1.2667302985651498,1.3084266824573736,-6.722026294316429,0.01949118822813034,0.029591381549835205,-0.9972109794616699,0.011271217837929726,-0.08793328702449799,-0.022185567766427994
2024-06-15 18:46:23.859051,-1.2561857671471195,1.2158779393688182,-6.738712019571947,0.011829037219285965,0.026897970587015152,-1.0006523132324219,0.010474659502506256,-0.07787419110536575,-0.02086777612566948
2024-06-15 18:46:23.876730,-1.2414118545289703,1.118310074457361,-6.748432659421344,0.025636054575443268,0.022068509832024574,-1.0030714273452759,0.014303654432296753,-0.08883240073919296,-0.014669249765574932
2024-06-15 18:46:23.901426,-1.2133032782168407,1.00200849475644,-6.752363006401864,0.04738914966583252,0.018058976158499718,-0.9904320240020752,0.021632499992847443,-0.10993950814008713,-0.01272588036954403
2024-06-15 18:46:23.919444,-1.1768477838521323,0.8440220037466668,-6.752389900271721,0.049908313900232315,0.02027696743607521,-1.001453161239624,0.030681489035487175,-0.14422254264354706,-0.008253556676208973
2024-06-15 18:46:23.938174,-1.1361713393020618,0.6478701232021548,-6.743230616594734,0.020194338634610176,0.026056990027427673,-1.0037668943405151,0.0349188931286335,-0.16692060232162476,-0.0008188660722225904
2024-06-15 18:46:23.961431,-1.0912117258121588,0.44579702893619705,-6.7340072998942775,0.007165420800447464,0.028248900547623634,-0.9979559779167175,0.04221469163894653,-0.17400695383548737,0.0010608338052406907
2024-06-15 18:46:23.979495,-1.0350795236657013,0.2333409265539092,-6.718254322347289,0.008698081597685814,0.0211515873670578,-0.9989855885505676,0.048450201749801636,-0.18349099159240723,0.00348402326926589
2024-06-15 18:46:24.000890,-0.9815152592037574,0.006518833179093668,-6.700191887087191,0.016737304627895355,0.027557887136936188,-1.0013045072555542,0.051333144307136536,-0.20354798436164856,0.010696852579712868
2024-06-15 18:46:24.021288,-0.9186459292147288,-0.24423873349850256,-6.665571792618512,0.02082369476556778,0.019380073994398117,-0.9947343468666077,0.05503038689494133,-0.22461509704589844,0.01834886148571968
2024-06-15 18:46:24.038651,-0.8511974909957355,-0.5132097954250329,-6.636484578264366,-0.0005720509216189384,0.02058093436062336,-0.9973201751708984,0.060089632868766785,-0.2340008020401001,0.018385007977485657
2024-06-15 18:46:24.063362,-0.7839093487788259,-0.8027916201827378,-6.596997120238407,-0.02243133634328842,0.020457755774259567,-0.9967702627182007,0.060051847249269485,-0.24421755969524384,0.025383958593010902
2024-06-15 18:46:24.081172,-0.7180926854412311,-1.0769870030919608,-6.560826572828135,-0.022689523175358772,0.0331152118742466,-0.9893465638160706,0.06500573456287384,-0.23724578320980072,0.026806378737092018
2024-06-15 18:46:24.098750,-0.6422775856540895,-1.3374976751122403,-6.522745279997552,-0.013340871781110764,0.039567168802022934,-0.9842286109924316,0.07451876997947693,-0.22979772090911865,0.026862647384405136
2024-06-15 18:46:24.114425,-0.5484448203624246,-1.586116774344116,-6.492071754208671,-0.03259328007698059,0.026434531435370445,-0.990135669708252,0.085696741938591,-0.2181893289089203,0.02568727731704712
2024-06-15 18:46:24.141407,-0.44468928431061205,-1.8282360948070784,-6.460781376960373,-0.04591044411063194,0.011820374056696892,-0.9945886135101318,0.08968174457550049,-0.20642317831516266,0.022573372349143028
2024-06-15 18:46:24.159106,-0.33865323880838216,-2.055157604036528,-6.424211690370479,-0.03524063527584076,0.008416797034442425,-1.0027424097061157,0.09278780221939087,-0.19704249501228333,0.025119034573435783
2024-06-15 18:46:24.173221,-0.23456859969636612,-2.2736557824720585,-6.39099007713436,-0.03951536864042282,0.009189436212182045,-0.997918963432312,0.09326810389757156,-0.19445516169071198,0.027569342404603958
2024-06-15 18:46:24.188032,-0.13319932096518713,-2.4864114793629013,-6.357979772875688,-0.04390241578221321,0.012458515353500843,-0.9942116737365723,0.09379897266626358,-0.18616962432861328,0.02589995414018631
2024-06-15 18:46:24.219283,-0.022630789610679228,-2.691934859696347,-6.3188692559145485,-0.04601205512881279,0.008848380297422409,-0.9895489811897278,0.09938786178827286,-0.17673157155513763,0.02923497185111046
2024-06-15 18:46:24.234688,0.09688882137799608,-2.8709812251556497,-6.2879626499202415,-0.05168937146663666,0.007848541252315044,-0.9921077489852905,0.10715968906879425,-0.1591508835554123,0.027076154947280884
2024-06-15 18:46:24.261374,0.21956566229761,-3.044264831946166,-6.253624727641649,-0.05038980022072792,0.005170023534446955,-0.9935214519500732,0.11109364777803421,-0.15524838864803314,0.02914958819746971
2024-06-15 18:46:24.278552,0.34119892501724,-3.2132693252216686,-6.214727654092072,-0.05041768029332161,-0.005533430725336075,-1.0055705308914185,0.10623175650835037,-0.14683163166046143,0.029950063675642014
2024-06-15 18:46:24.303666,0.4534940384809932,-3.371033675000858,-6.173641078026684,-0.06443116813898087,-0.013259685598313808,-1.0075815916061401,0.09792722016572952,-0.1366913914680481,0.03534486144781113
2024-06-15 18:46:24.321984,0.5563622902709388,-3.501481110081404,-6.136513877245787,-0.06391166895627975,-0.016090024262666702,-1.003408670425415,0.0902521163225174,-0.11748278141021729,0.03209581971168518
2024-06-15 18:46:24.334861,0.6420994137662874,-3.6236864278244494,-6.102912334737086,-0.07177998125553131,-0.005592338740825653,-1.0043082237243652,0.08026257157325745,-0.10289300978183746,0.029062161222100258
2024-06-15 18:46:24.362581,0.7225733428976123,-3.7266925106974114,-6.0666162826008145,-0.05910323187708855,-0.0077308909967541695,-1.0043013095855713,0.07445742189884186,-0.09399547427892685,0.030331116169691086
2024-06-15 18:46:24.381437,0.7992879465819328,-3.815626696332855,-6.034747473707181,-0.05988651514053345,-0.01534360647201538,-1.00389564037323,0.06841940432786942,-0.08362787216901779,0.028788557276129723
2024-06-15 18:46:24.393931,0.8702152989659897,-3.90333059414405,-6.005760150869648,-0.06939901411533356,-0.026452241465449333,-1.005882740020752,0.05927238613367081,-0.07594190537929535,0.025279145687818527
2024-06-15 18:46:24.423417,0.9283454381663815,-3.984101849947682,-5.978297240877495,-0.07208941876888275,-0.016842171549797058,-1.0044628381729126,0.05399684980511665,-0.06810721755027771,0.02378316968679428
2024-06-15 18:46:24.438329,0.976926225855155,-4.0516665081042715,-5.952709644699335,-0.06346445530653,-0.007019272074103355,-1.0012638568878174,0.04847313091158867,-0.06291524320840836,0.023350315168499947
2024-06-15 18:46:24.465625,1.0240528235809505,-4.111612517128535,-5.930313881297686,-0.07013564556837082,-0.010862397961318493,-0.9950299263000488,0.04576285928487778,-0.053606677800416946,0.02112288400530815
2024-06-15 18:46:24.483390,1.0762815726167456,-4.16235954200126,-5.906840228667646,-0.07935251295566559,-0.011522609740495682,-0.9870091676712036,0.04845705255866051,-0.037345677614212036,0.0180810634046793
2024-06-15 18:46:24.500844,1.1407280359738123,-4.167286242826955,-5.898270902580218,-0.0764087587594986,-0.0039160046726465225,-0.9825907945632935,0.05956628546118736,-0.008494101464748383,0.009385230951011181
2024-06-15 18:46:24.519011,1.2115104602814182,-4.145895371006944,-5.893414211193516,-0.09064201265573502,-0.0033460280392318964,-0.9909109473228455,0.06700451672077179,0.02207251638174057,0.006020179018378258
2024-06-15 18:46:24.543072,1.293628970898835,-4.095595723524855,-5.887249111693933,-0.07832308113574982,-0.010741344653069973,-0.9872482419013977,0.07364556938409805,0.04286473989486694,0.00299856043420732
2024-06-15 18:46:24.551548,1.3886260166397228,-4.016852607017893,-5.887579522095033,-0.06801873445510864,-0.018069997429847717,-0.9896252155303955,0.08149846643209457,0.06327415257692337,-0.001955979038029909
2024-06-15 18:46:24.579149,1.4888382319770326,-3.9187856046884963,-5.89256129132091,-0.07722305506467819,-0.02177564986050129,-0.9957029223442078,0.08635327219963074,0.08413517475128174,-0.0046554566361010075
2024-06-15 18:46:24.602862,1.5909602322393013,-3.802102494889407,-5.8963477774420365,-0.07566700875759125,-0.021083664149045944,-0.9892696738243103,0.09089907258749008,0.10115873068571091,-0.006310484372079372
2024-06-15 18:46:24.612310,1.6999967318191502,-3.6656438530090143,-5.904901735603831,-0.07248134166002274,-0.014424456283450127,-0.9883163571357727,0.09955430030822754,0.11843997240066528,-0.010274302214384079
2024-06-15 18:46:24.639474,1.82164688324872,-3.5086461919641594,-5.90546010356848,-0.06169327720999718,-0.024808192625641823,-0.9955265522003174,0.1058465912938118,0.13342973589897156,-0.007106670644134283
2024-06-15 18:46:24.657802,1.949637371218766,-3.3440917803763313,-5.903270601052667,-0.05799371376633644,-0.03458879142999649,-0.9966639876365662,0.10987062007188797,0.14065812528133392,-0.004809058737009764
2024-06-15 18:46:24.665794,2.078867538523169,-3.1815001944012353,-5.9023737118372805,-0.05592412129044533,-0.04111287370324135,-1.0003987550735474,0.10894782096147537,0.13934668898582458,-0.005829446017742157
2024-06-15 18:46:24.698491,2.1974460258169373,-3.0280461208751475,-5.898730659688725,-0.04890701547265053,-0.04051299765706062,-1.0084151029586792,0.10353013128042221,0.13396033644676208,-0.00450865738093853
2024-06-15 18:46:24.719280,2.306396721145338,-2.8787514191101855,-5.8911290860293235,-0.04035333916544914,-0.0387694425880909,-1.0053077936172485,0.09691748768091202,0.12775400280952454,-0.001653134822845459
2024-06-15 18:46:24.741263,2.413004661588424,-2.738837555283413,-5.886890526762508,-0.04639453813433647,-0.042012665420770645,-1.0049387216567993,0.09371635317802429,0.12086466699838638,-0.0027804640121757984
2024-06-15 18:46:24.758989,2.510263994048467,-2.6126628304155326,-5.8805102763040695,-0.04721485823392868,-0.0453093983232975,-1.0075945854187012,0.08535847812891006,0.11262626200914383,-0.0004830271936953068
2024-06-15 18:46:24.781748,2.602306556086501,-2.4899742767887094,-5.870758046829761,-0.033363133668899536,-0.04583257436752319,-1.0010967254638672,0.07940635085105896,0.10579866915941238,-0.00013265490997582674
2024-06-15 18:46:24.801366,2.690655479887439,-2.3730548851330195,-5.864665518090109,-0.03792087733745575,-0.04178530350327492,-1.0029823780059814,0.07998444885015488,0.09921154379844666,0.00015790850738994777
2024-06-15 18:46:24.818770,2.774843324379958,-2.2658919918198697,-5.855405916009688,-0.03847798705101013,-0.045201413333415985,-1.0087947845458984,0.07464239746332169,0.09384911507368088,0.0009702526149339974
2024-06-15 18:46:24.834743,2.8534144054972,-2.1591463803763253,-5.84636402620906,-0.034631576389074326,-0.04755793511867523,-1.0002521276474,0.07080159336328506,0.0911576896905899,0.0012127989903092384
2024-06-15 18:46:24.861208,2.9333274053429377,-2.0600300902356854,-5.837452336889486,-0.03194636106491089,-0.05498539283871651,-1.0036922693252563,0.06847268342971802,0.08682923763990402,0.0003512006951496005
2024-06-15 18:46:24.878905,3.0040732241054604,-1.9629944464709606,-5.833215485169962,-0.0290736872702837,-0.05083281174302101,-1.009014368057251,0.06322985142469406,0.08149496465921402,-0.0004235048545524478
2024-06-15 18:46:24.894921,3.066553233311798,-1.8789459805261919,-5.82463591379878,-0.020993618294596672,-0.052461523562669754,-1.006386399269104,0.05537303537130356,0.07160888612270355,0.0008101124549284577
2024-06-15 18:46:24.906927,3.122357372934683,-1.8043694928563498,-5.820381559719508,-0.02446037344634533,-0.05133713409304619,-1.0010006427764893,0.0514703132212162,0.06499378383159637,-0.0009085665224120021
2024-06-15 18:46:24.939132,3.176648625656411,-1.7386575235121264,-5.812873901161195,-0.026297956705093384,-0.05664464831352234,-1.008208990097046,0.046764615923166275,0.05761631205677986,0.0005464742425829172
2024-06-15 18:46:24.954809,3.2228584839295435,-1.6770574347699565,-5.8067130705298435,-0.025604907423257828,-0.05584827437996864,-1.0058889389038086,0.041704390197992325,0.05220861732959747,0.0007631909102201462
2024-06-15 18:46:24.981349,3.264363409081595,-1.6207689920462354,-5.800251284688188,-0.02440568245947361,-0.05421198531985283,-1.0011836290359497,0.03892356902360916,0.04817724600434303,-0.00010184166603721678
2024-06-15 18:46:24.998531,3.30413560061858,-1.5694873981492505,-5.79431072765757,-0.023085176944732666,-0.05760452151298523,-1.0073680877685547,0.035124775022268295,0.043530382215976715,0.0005582392332144082
2024-06-15 18:46:25.022539,3.3373211419181446,-1.5249920240794967,-5.787539448869148,-0.01944560743868351,-0.058246858417987823,-1.0039699077606201,0.02985301800072193,0.03822478652000427,0.001351505401544273
2024-06-15 18:46:25.040651,3.3657772041042984,-1.485096568972335,-5.781910946106235,-0.01863347366452217,-0.05551977828145027,-1.0018963813781738,0.026445765048265457,0.033472802489995956,-0.0002313601435162127
2024-06-15 18:46:25.050880,3.391470668214594,-1.4500274962874333,-5.777871316098995,-0.022090833634138107,-0.0537630170583725,-0.9999900460243225,0.024486498907208443,0.029416976496577263,0.00021628620743285865
2024-06-15 18:46:25.083168,3.423481630420328,-1.4151996146575978,-5.764968234983195,-0.03598641976714134,-0.0666646808385849,-0.9977812767028809,0.02563929744064808,0.038663189858198166,0.004784898366779089
2024-06-15 18:46:25.101199,3.4509041996076943,-1.3292120153187803,-5.773835528073164,-0.05389954894781113,-0.05761425197124481,-0.9947776198387146,0.024753687903285027,0.08060205727815628,-0.011473230086266994
2024-06-15 18:46:25.112425,3.4780687157104815,-1.197108045921094,-5.786036380364922,-0.06405141949653625,-0.0637509673833847,-1.0002446174621582,0.02251364476978779,0.12190567702054977,-0.019031289964914322
2024-06-15 18:46:25.143305,3.4957569846701104,-1.0222021624809945,-5.8020574428368334,-0.057195089757442474,-0.058336637914180756,-1.0011566877365112,0.017026670277118683,0.15990450978279114,-0.025214314460754395
2024-06-15 18:46:25.157817,3.513616221802401,-0.8031502051141635,-5.818869526591997,-0.015595046803355217,-0.054345086216926575,-0.9941375255584717,0.018222808837890625,0.18114903569221497,-0.026432087644934654
2024-06-15 18:46:25.179386,3.5392917566661253,-0.5554905873781159,-5.836990872233687,-0.010971374809741974,-0.057787131518125534,-0.9970898628234863,0.02073676697909832,0.21053145825862885,-0.031046919524669647
2024-06-15 18:46:25.203474,3.5583866177079537,-0.3093279016482118,-5.843296844384901,-0.03608129546046257,-0.06114393472671509,-1.0104060173034668,0.017201608046889305,0.21989528834819794,-0.02028474025428295
2024-06-15 18:46:25.219319,3.5678615841906427,-0.026420050496155364,-5.848469005133893,-0.028734896332025528,-0.052268050611019135,-0.9942159056663513,0.013729180209338665,0.2485956996679306,-0.019345048815011978
2024-06-15 18:46:25.239190,3.578890418709509,0.279424559729529,-5.83607904197949,-0.01265641674399376,-0.059639766812324524,-0.9975952506065369,0.010352801531553268,0.2710321843624115,-0.011625239625573158
2024-06-15 18:46:25.263471,3.585264052422189,0.6108946273260263,-5.816030302331387,-0.011570900678634644,-0.06219575181603432,-1.0090755224227905,0.006675440818071365,0.2890908122062683,-0.00346780801191926
2024-06-15 18:46:25.272400,3.577667174517842,0.9631944506939617,-5.778823273714566,0.013808169402182102,-0.06203858554363251,-0.9979156851768494,-0.004502045456320047,0.3009244203567505,0.00940721482038498
2024-06-15 18:46:25.299390,3.567802673809051,1.2912076688380656,-5.725454736861025,0.026052266359329224,-0.06435848772525787,-1.010580062866211,-0.009646746329963207,0.2924148738384247,0.02219073288142681
2024-06-15 18:46:25.323400,3.54505835731632,1.6079659091687521,-5.668074317643748,0.051620252430438995,-0.054614514112472534,-0.9960723519325256,-0.015463569201529026,0.2684156596660614,0.033170633018016815
2024-06-15 18:46:25.331579,3.5236482755892693,1.900362892442413,-5.599374567424467,0.050443150103092194,-0.05752995237708092,-1.007840871810913,-0.019642578437924385,0.25420883297920227,0.04359393194317818
2024-06-15 18:46:25.365627,3.4959640247793264,2.1717032562785707,-5.524334694108122,0.04420487955212593,-0.061742570251226425,-1.0021040439605713,-0.02601030468940735,0.24246975779533386,0.047080546617507935
2024-06-15 18:46:25.393483,3.4302987995422356,2.672339260410992,-5.362685033908253,0.05797096714377403,-0.051936518400907516,-0.999778687953949,-0.032981012016534805,0.21789054572582245,0.057475313544273376
2024-06-15 18:46:25.418236,3.391445695335441,2.906580384553168,-5.272162402403959,0.06056945398449898,-0.05707266926765442,-1.0012145042419434,-0.03619244694709778,0.20675668120384216,0.06546661257743835
2024-06-15 18:46:25.439259,3.3527185227414686,3.1227923706074487,-5.181480969001461,0.0643652081489563,-0.055829968303442,-0.998992919921875,-0.037737295031547546,0.19103942811489105,0.06770467013120651
2024-06-15 18:46:25.445817,3.3098437177740063,3.327411818092925,-5.092396092317454,0.06804162263870239,-0.056530967354774475,-1.0000255107879639,-0.04045035317540169,0.18139027059078217,0.06970904767513275
2024-06-15 18:46:25.478519,3.2620895964182157,3.524649325189499,-5.008035572104981,0.07727482914924622,-0.05304856598377228,-0.9965983033180237,-0.04339045658707619,0.17154893279075623,0.06615158915519714
2024-06-15 18:46:25.500488,3.215198426775374,3.7099047594911663,-4.929505899009582,0.09209255874156952,-0.04854517802596092,-0.9920986890792847,-0.042503729462623596,0.15491488575935364,0.06492988765239716
2024-06-15 18:46:25.520990,3.1689431050555785,3.8611481996036976,-4.857763726401884,0.08631373941898346,-0.04984964802861214,-1.0009617805480957,-0.04299502074718475,0.13511210680007935,0.059381064027547836
2024-06-15 18:46:25.538652,3.1185676851623843,4.00627904729589,-4.792915775987667,0.08640682697296143,-0.048912085592746735,-0.9947521686553955,-0.04431510344147682,0.12433779984712601,0.055781204253435135
2024-06-15 18:46:25.562928,3.0693331203039933,4.138467967171378,-4.736770340349693,0.08741769194602966,-0.04933162406086922,-0.9976351261138916,-0.04493076354265213,0.11577111482620239,0.047852031886577606
2024-06-15 18:46:25.581225,3.0190629280126995,4.257242822403785,-4.687314648116923,0.08854806423187256,-0.046839188784360886,-0.9976548552513123,-0.04595330357551575,0.1041957437992096,0.04442119598388672
2024-06-15 18:46:25.598928,2.969979694533107,4.362014936064019,-4.638113380430736,0.0939980298280716,-0.05100797116756439,-1.000301718711853,-0.04650941863656044,0.09131910651922226,0.04304886609315872
2024-06-15 18:46:25.612641,2.9184807085214457,4.456066640935094,-4.595568132090727,0.09161235392093658,-0.05298157036304474,-1.0000039339065552,-0.047839242964982986,0.08012786507606506,0.040058210492134094
2024-06-15 18:46:25.641482,2.8641964994322997,4.534800365931947,-4.560737155531424,0.08463384211063385,-0.051201485097408295,-1.0025588274002075,-0.0503636971116066,0.07177697122097015,0.03327538073062897
2024-06-15 18:46:25.659529,2.805400950396361,4.60737496784474,-4.5297631014190625,0.08733756840229034,-0.04554099217057228,-0.9983113408088684,-0.05190575495362282,0.06177554652094841,0.03089688904583454
2024-06-15 18:46:25.672872,2.7519935668419153,4.674930661378044,-4.501837019223819,0.09622029960155487,-0.04732055589556694,-0.9933351874351501,-0.04918310418725014,0.05522077903151512,0.02704685740172863
2024-06-15 18:46:25.700665,2.6990544781324393,4.7228623676522545,-4.478809463323944,0.09990990906953812,-0.05063502490520477,-0.9980853796005249,-0.05028720945119858,0.0394151397049427,0.022315505892038345
2024-06-15 18:46:25.718692,2.641452931540783,4.760905240668756,-4.471853342541109,0.10207407176494598,-0.04636180400848389,-0.99671471118927,-0.050943296402692795,0.029210736975073814,0.012522295117378235
2024-06-15 18:46:25.743791,2.5770344292706304,4.78376204183938,-4.473689382767373,0.09790749102830887,-0.03667041286826134,-0.9991379380226135,-0.053528424352407455,0.01891293190419674,0.00589297991245985
2024-06-15 18:46:25.761430,2.5119484894525215,4.799757917988727,-4.482385067354445,0.09523137658834457,-0.03528067469596863,-1.0019367933273315,-0.05350194871425629,0.010842375457286835,0.0017145546153187752
2024-06-15 18:46:25.771303,2.4478411876764277,4.809868732394462,-4.495027747508139,0.09630008786916733,-0.03923647850751877,-0.9982516169548035,-0.05356445163488388,0.0054630134254693985,-0.004902739077806473
2024-06-15 18:46:25.803068,2.3873069286098976,4.810349406957301,-4.5145095814551315,0.099180668592453,-0.041067901998758316,-0.995258629322052,-0.053055278956890106,-0.0032838827464729548,-0.008868985809385777
2024-06-15 18:46:25.821089,2.3255218911516082,4.801189696393491,-4.53973090873905,0.1002851352095604,-0.04002789407968521,-0.9980055093765259,-0.05270139500498772,-0.012132306583225727,-0.014116986654698849
2024-06-15 18:46:25.831217,2.259872460726973,4.781180230333116,-4.570536769443099,0.09771214425563812,-0.03449663147330284,-0.9952123165130615,-0.052359048277139664,-0.020405393093824387,-0.018462052568793297
2024-06-15 18:46:25.862687,2.1931214488552615,4.758667926828754,-4.607905161279063,0.10197623074054718,-0.03259684145450592,-1.0037165880203247,-0.053702212870121,-0.025644758716225624,-0.025227965787053108
2024-06-15 18:46:25.876545,2.1169697488080854,4.718841093778409,-4.6590304078770775,0.10127221047878265,-0.03506913036108017,-1.0069859027862549,-0.06066383421421051,-0.03968483582139015,-0.03568550571799278
2024-06-15 18:46:25.899213,2.0318034797169617,4.670156359148205,-4.724517834752336,0.11227428168058395,-0.03629792109131813,-1.0043524503707886,-0.06878916919231415,-0.054024241864681244,-0.046834032982587814
2024-06-15 18:46:25.923474,1.9361084740202632,4.601504420253114,-4.799012146708726,0.11573848128318787,-0.03404616191983223,-1.0051665306091309,-0.07714077830314636,-0.0705069825053215,-0.0571507066488266
2024-06-15 18:46:25.938448,1.8368720152389133,4.513355706372222,-4.8854498982025305,0.09635535627603531,-0.03323408216238022,-1.0002954006195068,-0.07994250953197479,-0.08187827467918396,-0.06575888395309448
2024-06-15 18:46:25.959286,1.7336253816411196,4.41226164958004,-4.981431558400958,0.08792047947645187,-0.030499929562211037,-1.0019152164459229,-0.0828915610909462,-0.0913195088505745,-0.07576002180576324
2024-06-15 18:46:25.983523,1.620379457820133,4.304564080520925,-5.087206002321891,0.08296336978673935,-0.026779398322105408,-1.0051454305648804,-0.08922399580478668,-0.09640993922948837,-0.08339620381593704
2024-06-15 18:46:26.000495,1.5042742460578498,4.1952281198346535,-5.195717217665884,0.08765655010938644,-0.026974324136972427,-0.9990127086639404,-0.09357351064682007,-0.10179144144058228,-0.08763125538825989
2024-06-15 18:46:26.019514,1.3878213349781308,4.077780455735346,-5.306593386009993,0.09070435911417007,-0.02587665431201458,-1.0010759830474854,-0.09502039849758148,-0.1100415512919426,-0.09061893820762634
2024-06-15 18:46:26.049472,1.269128762180882,3.9482719582222647,-5.423449384972448,0.07366441935300827,-0.023044263944029808,-0.9959895014762878,-0.09482082724571228,-0.1152145117521286,-0.09546539187431335
2024-06-15 18:46:26.052724,1.1538345286608322,3.8113860026319233,-5.540156400433633,0.05867227166891098,-0.020841442048549652,-0.9886080026626587,-0.09353116154670715,-0.11899328231811523,-0.09678389877080917
2024-06-15 18:46:26.079281,1.0450903398331186,3.684904559581627,-5.646638195820485,0.053843557834625244,-0.009371152147650719,-0.9891912937164307,-0.08636653423309326,-0.10592371970415115,-0.09021318703889847
2024-06-15 18:46:26.102856,0.9521118284353813,3.5692015819284344,-5.737234251858358,0.047792572528123856,-0.011516604572534561,-0.9880653023719788,-0.07637759298086166,-0.09878318011760712,-0.07836950570344925
2024-06-15 18:46:26.112479,0.8669538302764558,3.473180007812045,-5.822530507987124,0.0466131791472435,-0.010452672839164734,-0.9910740852355957,-0.06826724112033844,-0.08512305468320847,-0.07225634157657623
2024-06-15 18:46:26.139450,0.7875153151346225,3.3819218503115045,-5.8930364163550495,0.05099346861243248,-0.009404251351952553,-0.9897899627685547,-0.06538946181535721,-0.07711056619882584,-0.06408728659152985
2024-06-15 18:46:26.157808,0.7196160310695554,3.300501299649898,-5.953572809855696,0.0550699457526207,-0.009142152965068817,-0.9906142950057983,-0.056587640196084976,-0.07230821251869202,-0.05485515296459198
2024-06-15 18:46:26.165826,0.6586970936145357,3.225126960507634,-6.010326559216624,0.047014523297548294,-0.004664172418415546,-0.9910291433334351,-0.047775205224752426,-0.06528974324464798,-0.04955800995230675
2024-06-15 18:46:26.199475,0.6038121480435462,3.155137158308867,-6.058396149934705,0.04570038989186287,-0.0017087424639612436,-0.9946659803390503,-0.043171476572752,-0.058896228671073914,-0.04339199513196945
2024-06-15 18:46:26.219257,0.5544980755143484,3.101575028281039,-6.102913188510732,0.04691454768180847,-0.001836524810642004,-0.9929879903793335,-0.03875333070755005,-0.04662345349788666,-0.04040708392858505
2024-06-15 18:46:26.241367,0.5134279345916501,3.0524164492771644,-6.14054582329021,0.05068225786089897,-0.005375281907618046,-0.9940367341041565,-0.033617787063121796,-0.04307735338807106,-0.035996247082948685
2024-06-15 18:46:26.265489,0.4763831763284695,3.008651371840073,-6.17597999093059,0.0557614229619503,-0.006047070026397705,-1.000749111175537,-0.03016609139740467,-0.04093833267688751,-0.03249387815594673
2024-06-15 18:46:26.282124,0.4302052278453653,2.967270030423316,-6.212612002996661,0.06027401238679886,-0.006547810975462198,-1.0089057683944702,-0.03690449893474579,-0.04038546606898308,-0.03464111313223839
2024-06-15 18:46:26.301365,0.3725528550413306,2.9228379423250908,-6.251860831288493,0.06348441541194916,-0.004322259686887264,-1.0112957954406738,-0.047668397426605225,-0.042855583131313324,-0.03680052608251572
2024-06-15 18:46:26.318915,0.3056846093758182,2.8726768196171055,-6.294007794222526,0.0566687136888504,-0.00680377334356308,-1.007985234260559,-0.05610814318060875,-0.044194187968969345,-0.03904605284333229
2024-06-15 18:46:26.334706,0.23043452097951012,2.8228115294775464,-6.341343139604829,0.05747928470373154,-0.0059464434161782265,-1.0067824125289917,-0.062260378152132034,-0.04557279124855995,-0.043689023703336716
2024-06-15 18:46:26.361423,0.14916418111879112,2.7681902932415428,-6.387046069775501,0.0539739616215229,-0.005374708212912083,-1.0078964233398438,-0.06838411092758179,-0.04924315586686134,-0.043526191264390945
