sTimestamp,sRoll,sPitch,sYaw,sAcc_x,sAcc_y,sAcc_z,sGyro_x,sGyro_y,sGyro_z
2024-06-15 20:32:30.557703,-34.90033371523004,2.4102021495946033,-6.455993414352195,0.041547924280166626,0.5736488699913025,-0.8147350549697876,-0.014195033349096775,0.026290521025657654,0.017509562894701958
2024-06-15 20:32:30.579940,-34.913242772761365,2.4500409354759953,-6.401195660414828,0.03136793151497841,0.5770537853240967,-0.8082631230354309,-0.006745628546923399,0.03009743243455887,0.028546957299113274
2024-06-15 20:32:30.603830,-34.91255975384437,2.5120225543163337,-6.345108281384799,0.055970944464206696,0.5749771595001221,-0.8178459405899048,-0.0003913380787707865,0.03420611843466759,0.02981286123394966
2024-06-15 20:32:30.635949,-34.90771714972283,2.604826682446824,-6.274158410720823,0.04790036752820015,0.5783984065055847,-0.7894755005836487,0.012477146461606026,0.03609739616513252,0.016552308574318886
2024-06-15 20:32:30.664028,-34.889617148422296,2.6560992049988172,-6.231484242560229,0.051012758165597916,0.5840430855751038,-0.7855280637741089,0.024966923519968987,0.03635859489440918,0.020008118823170662
2024-06-15 20:32:30.683045,-34.858375863158656,2.7069465482749773,-6.2041984905996745,0.04430779069662094,0.5822281837463379,-0.7878975868225098,0.03496357053518295,0.045553747564554214,0.014097340404987335
2024-06-15 20:32:30.698386,-34.80886382186523,2.767178998357558,-6.166693921867134,0.047903064638376236,0.5723124742507935,-0.8004888296127319,0.045757047832012177,0.04494231566786766,0.024113696068525314
2024-06-15 20:32:30.724610,-34.74995685536846,2.829623575957576,-6.1228368503196595,0.05537359416484833,0.5695784091949463,-0.8048267960548401,0.054483767598867416,0.04489801079034805,0.024523071944713593
2024-06-15 20:32:30.742882,-34.68930136044416,2.8859638854303076,-6.10571399295726,0.05128883942961693,0.5762146711349487,-0.8054783344268799,0.05823702737689018,0.05181269720196724,0.009555778466165066
2024-06-15 20:32:30.751334,-34.62488243128718,2.93855698236964,-6.0755595615453,0.04227938503026962,0.5781669616699219,-0.8135861754417419,0.060064662247896194,0.04740481078624725,0.019240297377109528
2024-06-15 20:32:30.784809,-34.55722599246362,2.9933543094201833,-6.023113100229711,0.04756246879696846,0.5720348358154297,-0.8215897679328918,0.05781702697277069,0.03993907570838928,0.028409002348780632
2024-06-15 20:32:30.802971,-34.49182010097158,3.046023605657444,-5.985096694196243,0.06084142625331879,0.5609533190727234,-0.8262940645217896,0.05469485744833946,0.03771085664629936,0.02080303430557251
2024-06-15 20:32:30.811935,-34.43056354940032,3.0886557254659595,-5.943318561477391,0.05031326413154602,0.5669220685958862,-0.824258029460907,0.05560125783085823,0.033366814255714417,0.021261658519506454
2024-06-15 20:32:30.844302,-34.37043397904211,3.1326171708416886,-5.896801131248196,0.04523062705993652,0.5669614672660828,-0.8277581334114075,0.053489282727241516,0.03357366472482681,0.02527407370507717
2024-06-15 20:32:30.862293,-34.3132448051216,3.180762960857697,-5.841864639093314,0.05534740164875984,0.5654700398445129,-0.8195486664772034,0.053696852177381516,0.028635157272219658,0.03151872009038925
2024-06-15 20:32:30.872897,-34.250478781743766,3.2274285208145166,-5.784969163307108,0.06325678527355194,0.5636303424835205,-0.8213084936141968,0.05537711828947067,0.02612202987074852,0.03022640384733677
2024-06-15 20:32:30.905053,-34.189567154725594,3.2682248138401797,-5.736456890953446,0.06035810336470604,0.5669573545455933,-0.8248491883277893,0.05300217121839523,0.02547908015549183,0.02433919534087181
2024-06-15 20:32:30.918245,-34.13073532030969,3.304692047592524,-5.67859323585239,0.05841731280088425,0.5656596422195435,-0.8225169777870178,0.052053600549697876,0.018044866621494293,0.029074862599372864
2024-06-15 20:32:30.925493,-34.06709161762351,3.3376628648200564,-5.609574601176234,0.05555098503828049,0.5615906715393066,-0.8252084255218506,0.054559651762247086,0.014103464782238007,0.0335691012442112
2024-06-15 20:32:30.964956,-34.00222872617048,3.37344579899493,-5.551288328120284,0.05587871000170708,0.5580704808235168,-0.8304709792137146,0.05520779266953468,0.018438400700688362,0.03035621903836727
2024-06-15 20:32:30.979750,-33.93815813666118,3.4139676037933233,-5.483912353939517,0.06826181709766388,0.5562500357627869,-0.8272367715835571,0.05678921937942505,0.013957032933831215,0.03668688237667084
2024-06-15 20:32:31.007013,-33.87405339620602,3.4520888105418686,-5.415894768863591,0.0858459547162056,0.5573368072509766,-0.8184638023376465,0.05893663689494133,0.008474157191812992,0.030513903126120567
2024-06-15 20:32:31.024997,-33.8087567877407,3.4728412731178944,-5.366615380888772,0.08201894164085388,0.5607141256332397,-0.8246989250183105,0.05718085914850235,0.004905777983367443,0.01467100903391838
2024-06-15 20:32:31.042526,-33.74389048119309,3.4819702478304397,-5.309237522992434,0.060061268508434296,0.5643357634544373,-0.8245664238929749,0.05662098899483681,0.0014854317996650934,0.01743137091398239
2024-06-15 20:32:31.061052,-33.67238181567764,3.503452046543776,-5.249844759290942,0.07522732764482498,0.551510751247406,-0.8285578489303589,0.05727874115109444,0.00031171238515526056,0.019895339384675026
2024-06-15 20:32:31.084386,-33.606815414740105,3.5084442744968207,-5.208437164334563,0.07389310002326965,0.5558050870895386,-0.8285770416259766,0.05892062187194824,-0.0009071194799616933,0.002847343450412154
2024-06-15 20:32:31.096202,-33.53820274943274,3.5112038843649174,-5.163680642250761,0.06381955742835999,0.5518001317977905,-0.8316229581832886,0.06024949625134468,-0.0012329525779932737,0.00913990568369627
2024-06-15 20:32:31.105801,-33.468524574614854,3.5235880845472085,-5.106416763136198,0.08129438757896423,0.5509903430938721,-0.8261643052101135,0.061588436365127563,-0.006606451701372862,0.011304068379104137
2024-06-15 20:32:31.144907,-33.396233852439444,3.5125705625291546,-5.067494930150881,0.07679637521505356,0.5484071373939514,-0.8390798568725586,0.059707969427108765,-0.010883658193051815,-0.0058073438704013824
2024-06-15 20:32:31.153297,-33.33430111214035,3.4970333762712564,-5.031137833198902,0.05322014167904854,0.5594114661216736,-0.8299335837364197,0.05887487530708313,-0.006191752851009369,-0.002722139935940504
2024-06-15 20:32:31.181046,-33.26307931457004,3.50403709493487,-4.975434652309686,0.0830804854631424,0.5471042394638062,-0.8477436900138855,0.054016001522541046,-0.01306954026222229,0.00597064383327961
2024-06-15 20:32:31.199464,-33.20358836689923,3.483985367079005,-4.945243935517761,0.07900099456310272,0.5384529829025269,-0.8622134923934937,0.04316949471831322,-0.013302910141646862,-0.016288328915834427
2024-06-15 20:32:31.228346,-33.163023873418524,3.4655406546687972,-4.931124226956052,0.06359715759754181,0.5410723686218262,-0.8531395792961121,0.03655356541275978,-0.00441206619143486,-0.018818071112036705
2024-06-15 20:32:31.240602,-33.12713122933011,3.4561231044638188,-4.889145030543507,0.07164712250232697,0.5467835068702698,-0.8500632643699646,0.03203072026371956,-0.011806817725300789,-0.007668719161301851
2024-06-15 20:32:31.260969,-33.09716035925209,3.4371052964935647,-4.870393599950884,0.0778561607003212,0.5405651926994324,-0.844701886177063,0.025370169430971146,-0.009358221665024757,-0.025795750319957733
2024-06-15 20:32:31.283075,-33.079494074963854,3.4069346433823258,-4.860244365731067,0.07406105846166611,0.5492150783538818,-0.8380153775215149,0.01810498535633087,-0.015248363837599754,-0.03335321322083473
2024-06-15 20:32:31.301143,-33.05205720506791,3.3740150525735686,-4.831205389587935,0.06873173266649246,0.535230815410614,-0.8561289310455322,0.014610138721764088,-0.01995813101530075,-0.023624788969755173
2024-06-15 20:32:31.323695,-33.04387805353682,3.3438452532359757,-4.825412535398119,0.07569247484207153,0.5417554378509521,-0.8527678847312927,0.008048832416534424,-0.013326630927622318,-0.040346015244722366
2024-06-15 20:32:31.343050,-33.04750829908068,3.296070427869264,-4.823811282924574,0.06166812404990196,0.5474337339401245,-0.8364708423614502,0.0032420451752841473,-0.01892048493027687,-0.04473904147744179
2024-06-15 20:32:31.360646,-33.04488892153398,3.252717723103312,-4.801254156303783,0.04753773286938667,0.5466001629829407,-0.8466147184371948,0.0011603186139836907,-0.01872870698571205,-0.030490033328533173
2024-06-15 20:32:31.377014,-33.052289431499695,3.220290973131853,-4.799339142015241,0.061788566410541534,0.5471890568733215,-0.8385643362998962,-0.0025060938205569983,-0.012587524019181728,-0.04076407477259636
2024-06-15 20:32:31.387469,-33.059153771615556,3.1730941525236536,-4.78852140303041,0.043367981910705566,0.5543240308761597,-0.8303674459457397,0.0012458352139219642,-0.018362050876021385,-0.035801418125629425
2024-06-15 20:32:31.420322,-33.06059152643584,3.1396567479984445,-4.762879592225713,0.030575193464756012,0.5529002547264099,-0.8369539976119995,-0.0005337606417015195,-0.010076847858726978,-0.022151455283164978
2024-06-15 20:32:31.434448,-33.062599602051826,3.126527416866388,-4.74501736688566,0.06242479383945465,0.5474848747253418,-0.8348207473754883,-0.00067391328047961,-0.00825838465243578,-0.02232983708381653
2024-06-15 20:32:31.448785,-33.06248348883594,3.0947185855714037,-4.721056209503609,0.05490720272064209,0.545489490032196,-0.8382048606872559,0.0001194459036923945,-0.015771551057696342,-0.023502930998802185
2024-06-15 20:32:31.496869,-33.072390678227045,3.0558541688637963,-4.681058621724015,0.05566290766000748,0.5531406402587891,-0.8345342874526978,-0.00033504649763926864,-0.009473472833633423,-0.01721186935901642
2024-06-15 20:32:31.523045,-33.072725357496374,3.0301624123007933,-4.650551154909329,0.04197917878627777,0.5476757287979126,-0.8353955745697021,0.0008147502667270601,-0.008870604448020458,-0.014593085274100304
2024-06-15 20:32:31.540082,-33.07600384829798,3.021662028435301,-4.630931436518468,0.052662190049886703,0.5498871803283691,-0.8377535343170166,-0.0010911088902503252,-0.0013949839631095529,-0.015211519785225391
2024-06-15 20:32:31.564355,-33.07744501821285,3.0101463294946593,-4.599964212595276,0.06109338998794556,0.5482695698738098,-0.8387592434883118,-0.0018187720561400056,-0.009086470119655132,-0.011562763713300228
2024-06-15 20:32:31.582899,-33.08400541491065,3.0079045333430146,-4.573453260218695,0.06709350645542145,0.5494639277458191,-0.8376780152320862,-0.004872500896453857,-0.0015254984609782696,-0.011839916929602623
2024-06-15 20:32:31.592674,-33.09345498162736,3.0035545566153625,-4.56441862749406,0.08825108408927917,0.5449656248092651,-0.8418659567832947,-0.009861827827990055,-0.00573663879185915,-0.025711577385663986
2024-06-15 20:32:31.624638,-33.105537586269115,2.9723783715922507,-4.549662430679071,0.060708824545145035,0.5420438647270203,-0.8462501764297485,-0.01105218380689621,-0.010709675960242748,-0.02693796530365944
2024-06-15 20:32:31.642870,-33.12512315371413,2.9574416016510794,-4.539035083217354,0.05701866373419762,0.5497269630432129,-0.8420912623405457,-0.012266485951840878,-0.001731613650918007,-0.025726372376084328
2024-06-15 20:32:31.654244,-33.147109532652394,2.9351224644341816,-4.528628436243194,0.06771693378686905,0.5474180579185486,-0.8524863719940186,-0.022128397598862648,-0.010741649195551872,-0.0322355218231678
2024-06-15 20:32:31.685045,-33.17634615739463,2.8927631253056436,-4.5170380321085055,0.0436316542327404,0.5431581735610962,-0.8573103547096252,-0.029367364943027496,-0.012431314215064049,-0.033008236438035965
2024-06-15 20:32:31.699321,-33.21511772621821,2.8709041720840753,-4.501670960249623,0.06312964856624603,0.5428658127784729,-0.8460052609443665,-0.03552527725696564,-0.011896076612174511,-0.028079010546207428
2024-06-15 20:32:31.720901,-33.261306880480426,2.827927768052709,-4.49215992183038,0.06162033975124359,0.5492181777954102,-0.8399392366409302,-0.038479991257190704,-0.02253841981291771,-0.040212176740169525
2024-06-15 20:32:31.745060,-33.31044667646408,2.7714875670633665,-4.4823931782040844,0.029485750943422318,0.5503461956977844,-0.8498566150665283,-0.044999659061431885,-0.021086808294057846,-0.03786589205265045
2024-06-15 20:32:31.761351,-33.36563460495778,2.7388915564665384,-4.46312137257407,0.042965345084667206,0.5455085039138794,-0.8412922024726868,-0.047234851866960526,-0.018622035160660744,-0.02829745225608349
2024-06-15 20:32:31.780767,-33.422396892055175,2.688861914900076,-4.446229887869806,0.03261736035346985,0.5489352345466614,-0.8343670964241028,-0.04747778922319412,-0.022756973281502724,-0.03429322689771652
2024-06-15 20:32:31.804946,-33.484807745596164,2.6496167151462404,-4.433603429415391,0.013942202553153038,0.5626506805419922,-0.8221659064292908,-0.04741138592362404,-0.00942576676607132,-0.025363877415657043
2024-06-15 20:32:31.814508,-33.538052485271,2.6411654232654076,-4.396626492796234,0.04351964592933655,0.5611352324485779,-0.816438615322113,-0.0422271192073822,-0.01240775641053915,-0.006029542535543442
2024-06-15 20:32:31.840828,-33.580935827974926,2.6173662694327327,-4.365521384429173,0.04523109644651413,0.5534254908561707,-0.8268672227859497,-0.03678145259618759,-0.014168363064527512,-0.013370857574045658
2024-06-15 20:32:31.864684,-33.62416751032652,2.5980165569574982,-4.345517467897499,0.03163130208849907,0.5541492104530334,-0.8300701379776001,-0.035571932792663574,-0.004710511304438114,-0.013359833508729935
2024-06-15 20:32:31.874307,-33.666524928464355,2.590400469146111,-4.3056116607848764,0.03902417793869972,0.5613512396812439,-0.8264249563217163,-0.03307180851697922,-0.007438874803483486,-0.0004662876599468291
2024-06-15 20:32:31.906355,-33.70480130857311,2.581595074645495,-4.269793721890506,0.036098770797252655,0.5616124868392944,-0.8269141912460327,-0.03238604962825775,-0.003441707929596305,-0.0012204238446429372
2024-06-15 20:32:31.925140,-33.74488085862274,2.5796898787538844,-4.240459340065771,0.043852269649505615,0.5628257393836975,-0.8230560421943665,-0.030871253460645676,-0.0012010883074253798,-0.0011218595318496227
2024-06-15 20:32:31.935994,-33.77699299300556,2.578221814969155,-4.192805110226591,0.038768220692873,0.5584531426429749,-0.8282186388969421,-0.02843586541712284,-0.0047788857482373714,0.009100975468754768
2024-06-15 20:32:31.960971,-33.81044042937111,2.5846283189672152,-4.157173720873928,0.04434721916913986,0.5561293959617615,-0.8339112401008606,-0.031140247359871864,0.0019041543127968907,0.00526466453447938
2024-06-15 20:32:31.980457,-33.84870656419611,2.587996882888501,-4.123527782135622,0.04201040416955948,0.5598579049110413,-0.8289908766746521,-0.031748656183481216,0.00041035888716578484,0.005248040892183781
2024-06-15 20:32:31.987538,-33.88328781196388,2.5923598796642584,-4.077664342519456,0.033205486834049225,0.5579956769943237,-0.8341248631477356,-0.03064628504216671,0.0014042500406503677,0.014309652149677277
2024-06-15 20:32:32.021020,-33.92003081460396,2.6152177480519407,-4.033344525655712,0.05039672553539276,0.5570744872093201,-0.8356142044067383,-0.03243465721607208,0.006995181553065777,0.016747819259762764
2024-06-15 20:32:32.042283,-33.961350043987956,2.6254739174209494,-3.9973951056198196,0.05039883404970169,0.5585814118385315,-0.8306288123130798,-0.035341981798410416,0.003137475810945034,0.007794694043695927
2024-06-15 20:32:32.063018,-34.00567797170134,2.6319425334517748,-3.9572404234893144,0.030798694118857384,0.566397488117218,-0.8303497433662415,-0.03685542196035385,0.005627413745969534,0.015088194981217384
2024-06-15 20:32:32.081043,-34.048547654026926,2.661072223044821,-3.9054970447714137,0.045080773532390594,0.5660151243209839,-0.8264095187187195,-0.03717409819364548,0.00860660057514906,0.025328485295176506
2024-06-15 20:32:32.104602,-34.09293705344284,2.6841655195154575,-3.8622090133591653,0.05244271084666252,0.5633634924888611,-0.8227817416191101,-0.03722354397177696,0.007926729507744312,0.019553381949663162
2024-06-15 20:32:32.118472,-34.13599798106518,2.699798114978324,-3.8247330460437747,0.03663824498653412,0.564948320388794,-0.8288692235946655,-0.03718714043498039,0.010848251171410084,0.018374452367424965
2024-06-15 20:32:32.141041,-34.179837550252905,2.734800059710289,-3.773571514065794,0.0427904911339283,0.5651419758796692,-0.8263493776321411,-0.03835958242416382,0.014330605044960976,0.031196730211377144
2024-06-15 20:32:32.164399,-34.225948157339666,2.7691055385903245,-3.7274190720703717,0.051427941769361496,0.5659198760986328,-0.8207477927207947,-0.03808794543147087,0.014485973864793777,0.02661522664129734
2024-06-15 20:32:32.183057,-34.26795040564066,2.7952615345734766,-3.68791624611878,0.044097673147916794,0.567030668258667,-0.8227387070655823,-0.03595426678657532,0.014986022375524044,0.024676108732819557
2024-06-15 20:32:32.198562,-34.30774991793432,2.8317953626702286,-3.638019152910898,0.03641939535737038,0.5695905685424805,-0.8232014775276184,-0.03319760411977768,0.020213507115840912,0.03517062962055206
2024-06-15 20:32:32.225093,-34.34689031697308,2.88132362566293,-3.58815535687522,0.04981856420636177,0.5689133405685425,-0.8209423422813416,-0.03217356279492378,0.02432742714881897,0.03793785348534584
2024-06-15 20:32:32.243036,-34.38661469718588,2.9241828492613484,-3.539927604589171,0.04691605269908905,0.5687940716743469,-0.8190913200378418,-0.03366876021027565,0.022659437730908394,0.035438552498817444
2024-06-15 20:32:32.253123,-34.422524416747216,2.973960841045578,-3.4913621848260306,0.04498855769634247,0.5686273574829102,-0.8261772394180298,-0.033085547387599945,0.026756854727864265,0.04073527827858925
2024-06-15 20:32:32.284174,-34.460076796803946,3.034115170839527,-3.440272369834335,0.05044206231832504,0.5677537322044373,-0.8243943452835083,-0.03198159486055374,0.031237388029694557,0.04503387212753296
2024-06-15 20:32:32.303127,-34.497530139117714,3.0920616419842686,-3.392689856981441,0.05179861932992935,0.5699412226676941,-0.8198009729385376,-0.029972553253173828,0.03186677023768425,0.04376058280467987
2024-06-15 20:32:32.312674,-34.53281831146458,3.1483244714986025,-3.341131533701365,0.04581095278263092,0.5728358626365662,-0.8211207389831543,-0.03135473653674126,0.03099972940981388,0.047132477164268494
2024-06-15 20:32:32.344706,-34.56796646493347,3.2143480682237078,-3.2851698728407466,0.051718682050704956,0.5711230039596558,-0.8188470602035522,-0.029964368790388107,0.03428899124264717,0.05306690186262131
2024-06-15 20:32:32.362667,-34.60154367489325,3.284995276130088,-3.228343339276475,0.06198175996541977,0.5710071325302124,-0.8161547183990479,-0.029000544920563698,0.03295687586069107,0.05317048728466034
2024-06-15 20:32:32.372325,-34.634799865962044,3.3459613312182106,-3.1758723319685562,0.055915702134370804,0.5704114437103271,-0.8163913488388062,-0.029049864038825035,0.032130006700754166,0.05153380334377289
2024-06-15 20:32:32.405020,-34.66660805692679,3.4148429352241427,-3.113158175339734,0.06044931337237358,0.570605456829071,-0.8142544627189636,-0.028600333258509636,0.030509866774082184,0.058640237897634506
2024-06-15 20:32:32.418218,-34.69418153060614,3.4836163234204127,-3.0570951288586232,0.06983569264411926,0.5706196427345276,-0.8128282427787781,-0.023809852078557014,0.030642643570899963,0.05391063168644905
2024-06-15 20:32:32.431112,-34.719340532413874,3.54347140555135,-3.0024318442705415,0.06060345470905304,0.5728499293327332,-0.81495201587677,-0.021632468327879906,0.029796337708830833,0.05287954583764076
2024-06-15 20:32:32.465053,-34.74216019443089,3.608622018723163,-2.937910675719428,0.05979955568909645,0.5742757320404053,-0.8124936819076538,-0.019491421058773994,0.0283648818731308,0.06020848825573921
2024-06-15 20:32:32.482419,-34.7584877616418,3.678537542614706,-2.875092145262351,0.07541370391845703,0.5691035389900208,-0.8139452934265137,-0.01578318141400814,0.026816772297024727,0.05831040069460869
2024-06-15 20:32:32.500871,-34.77614721574087,3.732683440373159,-2.8161747200384095,0.06585292518138885,0.5732253789901733,-0.8166029453277588,-0.01652463711798191,0.02350081130862236,0.05288734287023544
2024-06-15 20:32:32.524311,-34.795524462416196,3.7932343480257913,-2.757016957533048,0.06087396293878555,0.5763081908226013,-0.812953531742096,-0.01655190996825695,0.026881927624344826,0.057786423712968826
2024-06-15 20:32:32.542247,-34.80989176533532,3.8592946570176854,-2.6868615232469084,0.06921558082103729,0.5738047957420349,-0.8133835196495056,-0.014456860721111298,0.02267681621015072,0.06381049752235413
2024-06-15 20:32:32.560853,-34.820939596317814,3.919497225022647,-2.6256576921983052,0.06930076330900192,0.5701891779899597,-0.8174188733100891,-0.012577648274600506,0.023726562038064003,0.057394567877054214
2024-06-15 20:32:32.584960,-34.83401257838922,3.981532845046111,-2.5664824273331956,0.0738181546330452,0.5701575875282288,-0.8129193782806396,-0.012058530002832413,0.02442833222448826,0.05875834450125694
2024-06-15 20:32:32.593432,-34.84255714504091,4.04454560900771,-2.4923757286122035,0.08574719727039337,0.5718762278556824,-0.811374306678772,-0.008277453482151031,0.01566595956683159,0.06328397989273071
2024-06-15 20:32:32.620653,-34.85088314563915,4.098466110523552,-2.437139135020664,0.08249826729297638,0.5725530982017517,-0.8096412420272827,-0.007313023786991835,0.01942373439669609,0.05037253722548485
2024-06-15 20:32:32.644679,-34.8579558065247,4.1438766232203825,-2.3846762385623848,0.0722341388463974,0.577849268913269,-0.8079285025596619,-0.004038546700030565,0.01635914295911789,0.048355549573898315
2024-06-15 20:32:32.652877,-34.85430165531874,4.1944806410073605,-2.311931735693987,0.06788621097803116,0.570440411567688,-0.8155182003974915,-0.002197304042056203,0.013668088242411613,0.0613078735768795
2024-06-15 20:32:32.680856,-34.849821051223216,4.255418735008568,-2.252104187763141,0.09060004353523254,0.566257894039154,-0.8171923160552979,0.0004036433529108763,0.017762774601578712,0.0531332828104496
2024-06-15 20:32:32.699469,-34.84860186245637,4.299912294809324,-2.1978210458910534,0.09126083552837372,0.5718092322349548,-0.8127642869949341,0.00161573919467628,0.010209438391029835,0.04543432965874672
2024-06-15 20:32:32.722914,-34.845965409436744,4.3370552904026765,-2.1352326074316417,0.07051565498113632,0.5767475962638855,-0.8096113801002502,0.0029957129154354334,0.010715319775044918,0.050492167472839355
2024-06-15 20:32:32.741037,-34.83946306934689,4.384985716016417,-2.0782914547553606,0.08190658688545227,0.5756737589836121,-0.8145146369934082,0.0026086680591106415,0.011050941422581673,0.04934143275022507
2024-06-15 20:32:32.761209,-34.82905044595721,4.419907192582223,-2.0177042617227627,0.07459397614002228,0.5700820684432983,-0.8175767660140991,0.004416702780872583,0.006652262061834335,0.048339441418647766
2024-06-15 20:32:32.782890,-34.81832021877111,4.466994516720291,-1.960496091338617,0.08304135501384735,0.567811906337738,-0.8174306154251099,0.00635906308889389,0.012612858787178993,0.05019409582018852
2024-06-15 20:32:32.807044,-34.80784953877349,4.512790508218403,-1.9040089327987304,0.10147909820079803,0.5670384168624878,-0.8123766779899597,0.0070138294249773026,0.005961663089692593,0.0432501845061779
2024-06-15 20:32:32.823641,-34.79439065101398,4.541127255537494,-1.8576735697995985,0.09224685281515121,0.5674079060554504,-0.819415807723999,0.008350790478289127,0.004384495317935944,0.03327898681163788
2024-06-15 20:32:32.843000,-34.78442198992034,4.565902486091246,-1.8180234678940284,0.0803944543004036,0.5702155828475952,-0.8170269131660461,0.009449467994272709,0.00767415389418602,0.030374446883797646
2024-06-15 20:32:32.860635,-34.77193981921214,4.592806174345103,-1.7683493163295239,0.08286351710557938,0.5710268616676331,-0.814748227596283,0.010618072934448719,0.003996639046818018,0.03450293466448784
2024-06-15 20:32:32.876643,-34.75749396911757,4.622117504281389,-1.7270237903648906,0.08846903592348099,0.5676894783973694,-0.8189979791641235,0.009936600923538208,0.006720414850860834,0.029180075973272324
2024-06-15 20:32:32.902895,-34.746005590933606,4.648742008552922,-1.694089151795618,0.0931616798043251,0.5701123476028442,-0.81214439868927,0.011868802830576897,0.006960613187402487,0.023731781169772148
2024-06-15 20:32:32.920235,-34.7319763823784,4.668742083103189,-1.6567168112565414,0.08768165856599808,0.5707101821899414,-0.8043848276138306,0.014664301648736,0.002863590605556965,0.023787807673215866
2024-06-15 20:32:32.944869,-34.70939236188775,4.692171766390448,-1.6204294035784388,0.09153523296117783,0.5669744610786438,-0.8090387582778931,0.018735120072960854,0.0029140280093997717,0.023458879441022873
2024-06-15 20:32:32.960453,-34.684264095931276,4.7113684399395925,-1.5898116932416815,0.09453698247671127,0.5684580206871033,-0.8127379417419434,0.023548826575279236,0.0028056332375854254,0.017339510843157768
2024-06-15 20:32:32.980877,-34.658654301638315,4.724563084755587,-1.556707580603628,0.08483435958623886,0.5727516412734985,-0.8018043041229248,0.027075784280896187,0.0018047252669930458,0.01897394470870495
2024-06-15 20:32:33.004897,-34.62326709154848,4.746907621738461,-1.5204401298845065,0.0949632003903389,0.5738922953605652,-0.7989755272865295,0.03418074920773506,0.0009503489127382636,0.021840941160917282
2024-06-15 20:32:33.028370,-34.58183857913777,4.755435966690868,-1.4874835066438428,0.09397554397583008,0.5776554346084595,-0.7978774905204773,0.0402558371424675,-0.004806267097592354,0.014760365709662437
2024-06-15 20:32:33.040924,-34.531906481210385,4.759780820776642,-1.4578303470839382,0.0804038718342781,0.5758304595947266,-0.799270749092102,0.046257827430963516,-0.0031489674001932144,0.015431104227900505
2024-06-15 20:32:33.060522,-34.46578000476091,4.773638420828952,-1.4203442412064984,0.09082861989736557,0.5665449500083923,-0.8112801909446716,0.05516193434596062,-0.004913952201604843,0.020411759614944458
2024-06-15 20:32:33.073603,-34.39771033949256,4.777708786687457,-1.3841897020520937,0.09004247933626175,0.5653991103172302,-0.8149791955947876,0.05867171287536621,-0.007208708208054304,0.015400758013129234
2024-06-15 20:32:33.100802,-34.33034076861414,4.780787067569017,-1.3579759696261138,0.08989141881465912,0.5675523281097412,-0.8118404746055603,0.061863310635089874,-0.006279498338699341,0.011544530279934406
2024-06-15 20:32:33.115751,-34.2580568766279,4.778182204174303,-1.323140937641991,0.08546555787324905,0.5689029097557068,-0.8158681988716125,0.06441216915845871,-0.011749696917831898,0.013352558016777039
2024-06-15 20:32:33.142428,-34.18230666363787,4.776442640370066,-1.291889193651186,0.0806877613067627,0.5651504993438721,-0.814998209476471,0.06792248040437698,-0.008182850666344166,0.013097268529236317
2024-06-15 20:32:33.160092,-34.10295352586066,4.779159348112438,-1.2556019994164949,0.08915452659130096,0.5650988221168518,-0.8092502951622009,0.07114603370428085,-0.011589841917157173,0.016026897355914116
2024-06-15 20:32:33.185055,-34.01141533060415,4.777226831464148,-1.2218913873244854,0.0954221859574318,0.5543174147605896,-0.8235255479812622,0.07399771362543106,-0.014334245584905148,0.01111597940325737
2024-06-15 20:32:33.202465,-33.927212758516234,4.769773814419194,-1.1966795582723817,0.08885083347558975,0.5591724514961243,-0.8237223029136658,0.07491233199834824,-0.011816410347819328,0.005676443688571453
2024-06-15 20:32:33.216860,-33.83985805412635,4.764821500384112,-1.166737396333221,0.09230593591928482,0.5512367486953735,-0.826282262802124,0.07243505120277405,-0.01517441961914301,0.007721227128058672
2024-06-15 20:32:33.229843,-33.75062163262014,4.754043461873832,-1.143254352193071,0.08931785076856613,0.549576461315155,-0.8295634984970093,0.07608920335769653,-0.013320792466402054,0.002049637958407402
2024-06-15 20:32:33.262888,-33.66670251338277,4.744628046102969,-1.1291427544810013,0.088009774684906,0.5553004741668701,-0.8257043361663818,0.07635188102722168,-0.009742464870214462,-0.0027383659034967422
2024-06-15 20:32:33.277570,-33.578159356077315,4.736075795488468,-1.105822887828991,0.09173563867807388,0.5553829669952393,-0.8262318968772888,0.07774950563907623,-0.013357643038034439,0.001606140867806971
2024-06-15 20:32:33.304962,-33.48637527401068,4.724105035194373,-1.0856522719928856,0.0910719558596611,0.5491251349449158,-0.832623302936554,0.07960814982652664,-0.013779272325336933,-0.0020232731476426125
2024-06-15 20:32:33.322081,-33.40171849434296,4.704894274380067,-1.0709686459378276,0.08163594454526901,0.5528767704963684,-0.8294264078140259,0.07495332509279251,-0.014893217012286186,-0.006542089395225048
2024-06-15 20:32:33.340954,-33.31243426151256,4.6898332803733656,-1.054132763242275,0.08243437111377716,0.548471987247467,-0.8321177959442139,0.07612217217683792,-0.013748777098953724,-0.003169943345710635
2024-06-15 20:32:33.364691,-33.22269582110234,4.679369430564906,-1.0360314812812719,0.09548678249120712,0.5494137406349182,-0.8415077924728394,0.0770675539970398,-0.014942378737032413,-0.004529520403593779
2024-06-15 20:32:33.376116,-33.138281513150154,4.658994122497111,-1.0240582663879454,0.08570526540279388,0.5416702628135681,-0.8582501411437988,0.06924080103635788,-0.015024414286017418,-0.00918603502213955
2024-06-15 20:32:33.385971,-33.06536582866568,4.640040774437149,-1.009121389725068,0.07461806386709213,0.5365813374519348,-0.8688691854476929,0.05654812231659889,-0.011680614203214645,-0.004928860347718
2024-06-15 20:32:33.425103,-33.01286557961038,4.62834791746491,-0.9927194374852228,0.0764671191573143,0.5417977571487427,-0.8511384725570679,0.04596564546227455,-0.008800395764410496,-0.0035907463170588017
2024-06-15 20:32:33.433429,-32.9701085954061,4.617313319973932,-0.9854520094866235,0.07980264723300934,0.5503841042518616,-0.8476287722587585,0.03778989985585213,-0.007385097444057465,-0.00825695414096117
2024-06-15 20:32:33.460990,-32.93688314018857,4.604269793093323,-0.9757790742397102,0.0744386687874794,0.5511049032211304,-0.8474258184432983,0.029978234320878983,-0.006342476233839989,-0.004586449358612299
2024-06-15 20:32:33.481332,-32.89994889225173,4.607186283868918,-0.9521495011975222,0.08830741047859192,0.535956859588623,-0.854831874370575,0.02563984878361225,-0.0064778574742376804,0.005330770742148161
2024-06-15 20:32:33.487511,-32.87316772051611,4.599247469619248,-0.9438224333822188,0.08880414813756943,0.5320752263069153,-0.8601462841033936,0.0171964168548584,-0.007287539076060057,-0.008241839706897736
2024-06-15 20:32:33.520419,-32.86394013494742,4.580086654563247,-0.9457928362360617,0.06716454029083252,0.5420191287994385,-0.8516980409622192,0.010228799656033516,-0.003174371551722288,-0.010759462602436543
2024-06-15 20:32:33.542338,-32.860695795091665,4.579910350305296,-0.9217433132816237,0.07142510265111923,0.5507345795631409,-0.8413426876068115,0.007029842585325241,-0.003549284767359495,0.007207815535366535
2024-06-15 20:32:33.562706,-32.85441543614984,4.5865531361599565,-0.9056580043428322,0.0904751569032669,0.5407043695449829,-0.8416646122932434,0.004795678425580263,-0.002305504633113742,0.001949785277247429
2024-06-15 20:32:33.580933,-32.85354458703066,4.583164508557983,-0.9021212470132349,0.08701828122138977,0.5407570004463196,-0.8379625082015991,0.0014303189236670732,-0.0016958657652139664,-0.005537380464375019
2024-06-15 20:32:33.604240,-32.85347628513896,4.576619052898995,-0.887026422225801,0.07575741410255432,0.5448763370513916,-0.8358844518661499,0.00018530749366618693,-0.004592155106365681,0.0018018567934632301
2024-06-15 20:32:33.622937,-32.85486281354048,4.579904373889772,-0.8724536800230498,0.08119141310453415,0.54775071144104,-0.8355814814567566,8.283341594506055e-05,-0.0013252368662506342,0.002619170118123293
2024-06-15 20:32:33.637294,-32.85609224759108,4.5786911615384485,-0.8650162977079935,0.08263058215379715,0.5451209545135498,-0.8328114151954651,0.0020493404008448124,-0.0016806034836918116,-0.0010894938604906201
2024-06-15 20:32:33.664201,-32.851092549118626,4.576856401972654,-0.8469162430466068,0.07846098393201828,0.5394359827041626,-0.8404813408851624,0.002069705631583929,-0.0028222333639860153,0.004669475369155407
2024-06-15 20:32:33.682923,-32.85047441699874,4.582632180689545,-0.833504099394229,0.08676576614379883,0.5404601097106934,-0.8384866118431091,5.767549737356603e-05,0.00028239257517270744,0.0020243185572326183
2024-06-15 20:32:33.698651,-32.855771228700085,4.580238626272279,-0.8295494732256445,0.08673135191202164,0.5462614297866821,-0.8306115865707397,-0.00016855227295309305,-0.002479155780747533,-0.004587620962411165
2024-06-15 20:32:33.724957,-32.856355209874124,4.57391429798767,-0.8145909854173463,0.0742778480052948,0.5482012629508972,-0.8346414566040039,0.0010007495293393731,-0.0038542011752724648,0.0016287177568301558
2024-06-15 20:32:33.741162,-32.85455203993324,4.5783061096239885,-0.8002376630416819,0.08171393722295761,0.5402114987373352,-0.8373485803604126,0.0002876038779504597,-0.0006072772666811943,0.004356724675744772
2024-06-15 20:32:33.761256,-32.854937945621344,4.58178054147741,-0.7901474992860161,0.09373758733272552,0.5421919822692871,-0.8401578068733215,-0.00020897167269140482,-0.003123046364635229,-0.0004683838924393058
2024-06-15 20:32:33.785034,-32.858144719436666,4.579690930478209,-0.7829016290719846,0.08907350897789001,0.5426579713821411,-0.8386627435684204,-0.0020474169868975878,-0.0027877413667738438,-0.00365358404815197
2024-06-15 20:32:33.794208,-32.8653573992002,4.580948539059138,-0.7804894517170594,0.09484706073999405,0.5454368591308594,-0.8385713696479797,-0.00503956712782383,-0.0015484427567571402,-0.006360169034451246
2024-06-15 20:32:33.820815,-32.87125868264309,4.572490203545723,-0.7739175824358907,0.09251554310321808,0.5419183373451233,-0.8449428677558899,-0.006175007671117783,-0.006746906321495771,-0.007466144394129515
2024-06-15 20:32:33.844007,-32.88117270222337,4.558373483191776,-0.7718698063453562,0.08455149829387665,0.5360292196273804,-0.8527308106422424,-0.012604443356394768,-0.006043522618710995,-0.012628259137272835
2024-06-15 20:32:33.856445,-32.90314883587788,4.5449098996772115,-0.7773721640520361,0.08525441586971283,0.5421335697174072,-0.8490070700645447,-0.01791442185640335,-0.0044598933309316635,-0.01586422696709633
2024-06-15 20:32:33.880790,-32.931459969987586,4.529118929202965,-0.7766791666555444,0.07873838394880295,0.5439934730529785,-0.8469069004058838,-0.024555305019021034,-0.006225465331226587,-0.014285827986896038
2024-06-15 20:32:33.904842,-32.966638859307736,4.519182284621066,-0.7841940289289979,0.08176739513874054,0.5450081825256348,-0.8437542915344238,-0.02917211316525936,-0.0009925185004249215,-0.018082382157444954
2024-06-15 20:32:33.941031,-33.00355603177165,4.5069161186453695,-0.7901322380820893,0.08492858707904816,0.538679838180542,-0.8421788811683655,-0.03310534358024597,-0.0037667800206691027,-0.01911524496972561
2024-06-15 20:32:33.964269,-33.09167230225399,4.4790233336223295,-0.8087975976190004,0.08321787416934967,0.5433073043823242,-0.8391759395599365,-0.040280018001794815,-0.0010031203273683786,-0.02051415480673313
2024-06-15 20:32:33.982263,-33.142280588909195,4.464644931645807,-0.8174229526019628,0.08572549372911453,0.5476641058921814,-0.8332209587097168,-0.04015131667256355,-0.004564283415675163,-0.02088865451514721
2024-06-15 20:32:34.000912,-33.18862342242773,4.44783242100382,-0.8281236712364043,0.08180002123117447,0.545365035533905,-0.8405719995498657,-0.04005999118089676,-0.0024539742153137922,-0.024215217679739
2024-06-15 20:32:34.013281,-33.24208331306142,4.4303979362605395,-0.8418814864938083,0.07965242117643356,0.5467606782913208,-0.8415864706039429,-0.04539327695965767,-0.0017358331242576241,-0.02473343536257744
2024-06-15 20:32:34.043102,-33.296328675449665,4.412978392556068,-0.8524791653213177,0.07742862403392792,0.5460315942764282,-0.8415281176567078,-0.045959845185279846,-0.0022250874899327755,-0.02357688546180725
2024-06-15 20:32:34.058389,-33.35793698176318,4.397408549456201,-0.8652630916526132,0.08157874643802643,0.5522250533103943,-0.8320131897926331,-0.04810977727174759,-0.0013321740552783012,-0.026268159970641136
2024-06-15 20:32:34.084958,-33.41690883505707,4.378009104666073,-0.8789654116230108,0.08186982572078705,0.5523838996887207,-0.8312078714370728,-0.04828820750117302,-0.004806847777217627,-0.02684161067008972
2024-06-15 20:32:34.102900,-33.478008292277416,4.356251110178174,-0.8886699898556881,0.07196976244449615,0.5559163689613342,-0.8295526504516602,-0.0491580031812191,-0.0033607983496040106,-0.02524244785308838
2024-06-15 20:32:34.106333,-33.53736605125941,4.343519210678447,-0.9028411916404365,0.07693266123533249,0.5533549785614014,-0.8294872045516968,-0.04991019889712334,0.0003722122055478394,-0.024893073365092278
2024-06-15 20:32:34.144976,-33.59674088571433,4.326496671719482,-0.9136712036214323,0.07909054309129715,0.5528924465179443,-0.8341116309165955,-0.051013145595788956,-0.0032093001063913107,-0.024895215407013893
2024-06-15 20:32:34.154401,-33.65955472041636,4.310243809702614,-0.9268111002023617,0.07763787358999252,0.5517658591270447,-0.8292683362960815,-0.052836839109659195,-0.00028500251937657595,-0.025430692359805107
2024-06-15 20:32:34.167348,-33.7253704232586,4.303818736127748,-0.9444817600805366,0.09700411558151245,0.5585824251174927,-0.8064678907394409,-0.04708622023463249,-0.0006292759208008647,-0.029249873012304306
2024-06-15 20:32:34.204714,-33.77865272897387,4.274816045364581,-0.9623154907251458,0.08685596287250519,0.5630788803100586,-0.8038098216056824,-0.037991564720869064,-0.009547492489218712,-0.03598294407129288
2024-06-15 20:32:34.214783,-33.819613373426435,4.244802486604253,-0.9791949158766571,0.07530005276203156,0.5616623163223267,-0.8125046491622925,-0.03248310089111328,-0.006958972662687302,-0.033903080970048904
2024-06-15 20:32:34.241033,-33.853535507939306,4.22408737662525,-0.9960610008149458,0.09531514346599579,0.5577325820922852,-0.8125712871551514,-0.025386156514286995,-0.01109590195119381,-0.035326261073350906
2024-06-15 20:32:34.261411,-33.87871841540914,4.18255939958475,-1.0203031564483194,0.08416884392499924,0.5580928325653076,-0.8124942779541016,-0.01673145592212677,-0.012870433740317822,-0.046695441007614136
2024-06-15 20:32:34.282951,-33.89974856786361,4.143368627900863,-1.0509616344766852,0.0790862962603569,0.5617662668228149,-0.8127878904342651,-0.011846334673464298,-0.009850447997450829,-0.049125779420137405
2024-06-15 20:32:34.301034,-33.91356262545996,4.101587506974249,-1.0733643347892097,0.08089548349380493,0.5618326663970947,-0.8151772618293762,-0.00726573821157217,-0.016532283276319504,-0.047669220715761185
2024-06-15 20:32:34.323729,-33.91904043717431,4.051252000999016,-1.1005425112703366,0.07132916897535324,0.554463267326355,-0.8286093473434448,-0.006444666069000959,-0.014504360035061836,-0.05299759283661842
2024-06-15 20:32:34.342885,-33.930474173844914,4.003744620226993,-1.1398278383855458,0.07064320892095566,0.5591145157814026,-0.827357828617096,-0.006333016324788332,-0.010450808331370354,-0.058252379298210144
2024-06-15 20:32:34.360690,-33.9415698161516,3.954290208654692,-1.1644552593767905,0.07153627276420593,0.5654276013374329,-0.8210132718086243,-0.0034140287898480892,-0.01725427433848381,-0.052295099943876266
2024-06-15 20:32:34.376441,-33.949957288452374,3.912279422617236,-1.1977242570502762,0.07989884167909622,0.5656184554100037,-0.8174797296524048,-0.0006398136611096561,-0.00997639074921608,-0.05666631460189819
2024-06-15 20:32:34.403101,-33.950783741341944,3.866912025489542,-1.2423401199258575,0.10587600618600845,0.5546020865440369,-0.81651771068573,0.0024723331443965435,-0.02024996280670166,-0.06943880021572113
2024-06-15 20:32:34.420104,-33.94696225050132,3.788387048149198,-1.2783750240480811,0.09234700351953506,0.5523890256881714,-0.821955680847168,0.005259805358946323,-0.03529089316725731,-0.07650119811296463
2024-06-15 20:32:34.436831,-33.94427115596834,3.7086932546871356,-1.3308232996326685,0.08698717504739761,0.5575637817382812,-0.8098695278167725,0.011354029178619385,-0.03093669004738331,-0.0887603759765625
2024-06-15 20:32:34.448352,-33.93450057036063,3.620692243647045,-1.38841940341733,0.08198130130767822,0.5668473839759827,-0.8026953339576721,0.020120015367865562,-0.03467956930398941,-0.09537515789270401
2024-06-15 20:32:34.480436,-33.911356474358044,3.5226098733920157,-1.4397355751469878,0.07005348056554794,0.5666175484657288,-0.80726557970047,0.03034188039600849,-0.03904595226049423,-0.09426441043615341
2024-06-15 20:32:34.496703,-33.879237509786066,3.4299252735720005,-1.488204198322985,0.08164924383163452,0.5610462427139282,-0.8091029524803162,0.03581041842699051,-0.04208110645413399,-0.09583699703216553
2024-06-15 20:32:34.522025,-33.838454450251916,3.3210691336749223,-1.5444639329078511,0.07488644868135452,0.5568121075630188,-0.8190814852714539,0.0366886630654335,-0.04889591410756111,-0.10680504143238068
2024-06-15 20:32:34.540121,-33.79909548515972,3.2029132643360483,-1.6113008557527166,0.04714805632829666,0.5613282322883606,-0.8226776123046875,0.04000482335686684,-0.04255944490432739,-0.11075663566589355
2024-06-15 20:32:34.564232,-33.758462689787315,3.0987178747738575,-1.6609178044829223,0.053055666387081146,0.5599012970924377,-0.8093403577804565,0.04299819469451904,-0.046068962663412094,-0.09935429692268372
2024-06-15 20:32:34.575482,-33.70591121431323,2.9736393952677647,-1.7109690038339527,0.036447033286094666,0.5638731122016907,-0.8113909363746643,0.0560828372836113,-0.05188256502151489,-0.10392512381076813
2024-06-15 20:32:34.606990,-33.642643172031406,2.8662282672669672,-1.7509085350056022,0.016866134479641914,0.5651319622993469,-0.8139136433601379,0.06362736970186234,-0.0409003347158432,-0.08606784045696259
2024-06-15 20:32:34.625031,-33.57069054421991,2.7863861306338684,-1.7804237033999313,0.03881402313709259,0.5615668296813965,-0.8099138140678406,0.06980649381875992,-0.037821248173713684,-0.07480018585920334
2024-06-15 20:32:34.636155,-33.490630481863604,2.6873460397911564,-1.8112402362745594,0.033444955945014954,0.5614728927612305,-0.8172166347503662,0.07438666373491287,-0.045217517763376236,-0.07893255352973938
2024-06-15 20:32:34.660975,-33.40545802291354,2.5952656982692757,-1.8339723864928312,0.013116705231368542,0.5654409527778625,-0.8197768926620483,0.08197024464607239,-0.03864305838942528,-0.06512369215488434
2024-06-15 20:32:34.685058,-33.30755409135058,2.5345284545183486,-1.8393402748502266,0.034171175211668015,0.5535939335823059,-0.8259616494178772,0.08593931794166565,-0.03401288762688637,-0.04649779573082924
2024-06-15 20:32:34.698385,-33.2075362162395,2.4694382458320083,-1.8555905755461564,0.04113183543086052,0.552131175994873,-0.829879641532898,0.0907490998506546,-0.032384976744651794,-0.05543339252471924
2024-06-15 20:32:34.705522,-33.10457452959614,2.4001602774108037,-1.8693452958740926,0.028335999697446823,0.552821695804596,-0.8279628157615662,0.09410034120082855,-0.03218764066696167,-0.04979432746767998
2024-06-15 20:32:34.745031,-32.999478408837156,2.339759847363323,-1.8631895878846185,0.02634989656507969,0.5574209690093994,-0.8167176842689514,0.09919527918100357,-0.033288054168224335,-0.03588596731424332
2024-06-15 20:32:34.761360,-32.881568853195226,2.2901652034696256,-1.8630139239569024,0.0344223715364933,0.5552000403404236,-0.8324782848358154,0.10263154655694962,-0.028726181015372276,-0.03546013683080673
2024-06-15 20:32:34.780978,-32.762911391839175,2.239325117269459,-1.860001170202692,0.0321979820728302,0.5468191504478455,-0.8467398285865784,0.09930142015218735,-0.030226193368434906,-0.03234323486685753
2024-06-15 20:32:34.804330,-32.646296157044965,2.1874965746303445,-1.844533779940375,0.029402082785964012,0.5341259837150574,-0.8551052808761597,0.09575622528791428,-0.033834975212812424,-0.024191366508603096
2024-06-15 20:32:34.823387,-32.540609224922775,2.1432501823001786,-1.832865468960466,0.028910448774695396,0.5372220873832703,-0.850211501121521,0.0907641351222992,-0.027534304186701775,-0.023566950112581253
2024-06-15 20:32:34.840890,-32.43989467051635,2.1082505854457407,-1.8306691362554839,0.028366221114993095,0.5403907299041748,-0.8490859270095825,0.08858170360326767,-0.02020832896232605,-0.022767459973692894
2024-06-15 20:32:34.861730,-32.33899911609692,2.074513079483874,-1.812097425015396,0.03287956491112709,0.5384472012519836,-0.8456795811653137,0.08977705985307693,-0.024425020441412926,-0.013285808265209198
2024-06-15 20:32:34.867558,-32.23690827857274,2.039731621796054,-1.7878518542874375,0.032065145671367645,0.5311957597732544,-0.850163996219635,0.08775317668914795,-0.025935495272278786,-0.010167443193495274
2024-06-15 20:32:34.900932,-32.138273516768585,2.0146772072599775,-1.7794803902425291,0.03384360671043396,0.5309032201766968,-0.8534142971038818,0.08431351184844971,-0.017435019835829735,-0.015652967616915703
2024-06-15 20:32:34.917273,-32.04635283091856,1.9856262782857979,-1.7631644556975437,0.028331222012639046,0.5366228222846985,-0.8488195538520813,0.08295076340436935,-0.020149994641542435,-0.010076300241053104
2024-06-15 20:32:34.927484,-31.954063314853343,1.9603678118482675,-1.7301845671250198,0.03250976279377937,0.5344876646995544,-0.847259521484375,0.07958842813968658,-0.024651721119880676,-0.0011047730222344398
2024-06-15 20:32:34.961027,-31.859861345820526,1.9427708966687876,-1.7158489605525151,0.039103999733924866,0.5237228870391846,-0.8517429828643799,0.07875201106071472,-0.016301391646265984,-0.008402611128985882
2024-06-15 20:32:34.979786,-31.769747245005963,1.915561770892984,-1.7021315928216023,0.025703968480229378,0.5290523767471313,-0.8550315499305725,0.07987245917320251,-0.017790665850043297,-0.008814229629933834
2024-06-15 20:32:35.002909,-31.679595578150966,1.8926571583981693,-1.6711765351728698,0.008666674606502056,0.5278317928314209,-0.8482252359390259,0.08225839585065842,-0.015274083241820335,0.005736093036830425
2024-06-15 20:32:35.021029,-31.589925439632452,1.889179524893575,-1.6338656663363231,0.02075781300663948,0.5339627861976624,-0.8404467701911926,0.08417558670043945,-0.012303351424634457,0.014478827826678753
2024-06-15 20:32:35.042201,-31.492147866569137,1.8862790423738467,-1.603930974916567,0.018157130107283592,0.5327332615852356,-0.8453148007392883,0.08895470947027206,-0.006251052021980286,0.013190997764468193
2024-06-15 20:32:35.063052,-31.395521180380968,1.8925130840953643,-1.5608511575522983,0.01409473642706871,0.5339632034301758,-0.8470157980918884,0.0878974199295044,-0.0032239004503935575,0.02637512981891632
2024-06-15 20:32:35.080477,-31.291254927606136,1.9097010416982898,-1.5117345201787962,0.0311901792883873,0.5245915651321411,-0.8467410206794739,0.08891376852989197,-0.005471951328217983,0.03317349776625633
2024-06-15 20:32:35.104873,-31.182904221707638,1.9175019715040906,-1.4650021524341574,0.026927843689918518,0.523013710975647,-0.8566663265228271,0.09183093905448914,-0.007195706944912672,0.029713723808526993
2024-06-15 20:32:35.122980,-31.080734837008002,1.9337102238479424,-1.4221709966443594,0.015173939056694508,0.5259837508201599,-0.8517640829086304,0.09312839061021805,0.0026941890828311443,0.03560341149568558
2024-06-15 20:32:35.140963,-30.97220996128567,1.9630661634572457,-1.3586261182577344,0.022906331345438957,0.5188442468643188,-0.8503590226173401,0.09354490786790848,0.00025353842647746205,0.05097613483667374
2024-06-15 20:32:35.156764,-30.86008557587074,1.9911730322220829,-1.3032940087395206,0.032846659421920776,0.5109325051307678,-0.854516863822937,0.09658794105052948,0.0022008419036865234,0.04669339582324028
2024-06-15 20:32:35.182941,-30.749340888668154,2.0236460994138508,-1.2494078716129398,0.03058582916855812,0.5172382593154907,-0.8529731631278992,0.09849085658788681,0.005153745878487825,0.04735932871699333
2024-06-15 20:32:35.200806,-30.63302959729201,2.058756900285713,-1.1887758554639134,0.03287222981452942,0.514061689376831,-0.8621543049812317,0.09795983135700226,0.004214969463646412,0.05302323400974274
2024-06-15 20:32:35.217249,-30.51891421173402,2.093525978255663,-1.1263872000377244,0.033016737550497055,0.5107340216636658,-0.8609464168548584,0.10036592185497284,0.0037009662482887506,0.055998966097831726
2024-06-15 20:32:35.243026,-30.405416958295916,2.1299001506805655,-1.061127517282603,0.0335286483168602,0.5101633071899414,-0.8573483228683472,0.09892295300960541,0.003846727078780532,0.057681526988744736
2024-06-15 20:32:35.260291,-30.288890515960915,2.1719954603090006,-1.0022550218967954,0.03521961718797684,0.5064992308616638,-0.8616292476654053,0.09880480915307999,0.008148920722305775,0.057192906737327576
2024-06-15 20:32:35.284319,-30.17371303598699,2.214038689745014,-0.9379043946315202,0.039455607533454895,0.5059613585472107,-0.8622879981994629,0.09872950613498688,0.005251151043921709,0.06143195927143097
2024-06-15 20:32:35.303113,-30.051421913992495,2.2537163258506756,-0.8694779587007457,0.03995761275291443,0.4956856369972229,-0.8672496676445007,0.10302632302045822,0.0037559415213763714,0.06484603136777878
2024-06-15 20:32:35.313857,-29.93366262251231,2.2989951439625713,-0.8060145623364846,0.03777643293142319,0.4970621168613434,-0.8668152689933777,0.10403790324926376,0.009752095676958561,0.061941515654325485
2024-06-15 20:32:35.344613,-29.8162482555852,2.342475914775461,-0.7455420951376016,0.03197560831904411,0.49932700395584106,-0.8680583238601685,0.10202959924936295,0.012293485924601555,0.06179800257086754
2024-06-15 20:32:35.362657,-29.69920271887328,2.388970293116207,-0.6766961361814002,0.037407346069812775,0.5016608834266663,-0.8714948892593384,0.10207344591617584,0.011027808301150799,0.06939338892698288
2024-06-15 20:32:35.374928,-29.584298446466153,2.4520876443494717,-0.5965468544790625,0.06070690229535103,0.49581193923950195,-0.876671552658081,0.09379887580871582,0.008859805762767792,0.0743279904127121
2024-06-15 20:32:35.404146,-29.475517438649945,2.50324341335534,-0.54924107100926,0.08133379369974136,0.4814029633998871,-0.8921427726745605,0.08255597203969955,0.006515999790281057,0.05051862448453903
2024-06-15 20:32:35.423145,-29.38435831889237,2.527489304248416,-0.5085779666724122,0.05091922730207443,0.4838058650493622,-0.8868874907493591,0.07620048522949219,0.003986233379691839,0.041965704411268234
2024-06-15 20:32:35.435328,-29.29687042581368,2.5587489456454486,-0.45118655511943956,0.043213844299316406,0.4829784035682678,-0.8922195434570312,0.07166820764541626,0.004111012443900108,0.05346383899450302
2024-06-15 20:32:35.465068,-29.221021175080686,2.6025456127074515,-0.40679883657039273,0.06908079236745834,0.4826115071773529,-0.8861208558082581,0.06425158679485321,0.007514855824410915,0.043205127120018005
2024-06-15 20:32:35.481417,-29.157558472407512,2.625279897359839,-0.38016432713894294,0.06301505863666534,0.4923616647720337,-0.8705565333366394,0.0606599785387516,0.0032074993941932917,0.028969690203666687
2024-06-15 20:32:35.506117,-29.089461486382486,2.646872046316953,-0.3364336941323925,0.0559256374835968,0.490773469209671,-0.8790726065635681,0.056326333433389664,-0.0009699583170004189,0.038912832736968994
2024-06-15 20:32:35.525108,-29.028894783917398,2.675544540122432,-0.30651341014291694,0.0681350901722908,0.4842519164085388,-0.8828937411308289,0.047674257308244705,0.003371007042005658,0.02876277267932892
2024-06-15 20:32:35.542162,-28.975759327269284,2.685477342722923,-0.2884370477002137,0.05631905794143677,0.4813990294933319,-0.8804221153259277,0.043480876833200455,-0.00173702253960073,0.017670415341854095
2024-06-15 20:32:35.560084,-28.92257605929698,2.689282825307678,-0.2617296473437152,0.03872397914528847,0.47906437516212463,-0.8902254700660706,0.04163561388850212,-0.0018139564199373126,0.022326381877064705
2024-06-15 20:32:35.584094,-28.87867501840672,2.7131867798554303,-0.23521349228397695,0.06059251353144646,0.4793120324611664,-0.8814252614974976,0.039093341678380966,0.0028980013448745012,0.025273438543081284
2024-06-15 20:32:35.592153,-28.83815150606104,2.727670622877265,-0.21508244352028996,0.0765128955245018,0.48206615447998047,-0.8701940774917603,0.03885893151164055,-0.0051442463882267475,0.01494798343628645
2024-06-15 20:32:35.620823,-28.79627561625969,2.7225656968029153,-0.2071954826794161,0.06179279834032059,0.4858151078224182,-0.8746002912521362,0.03754688799381256,-0.008852338418364525,0.0017657341668382287
2024-06-15 20:32:35.636097,-28.758094858799318,2.7144595429185796,-0.19475223871340155,0.04916644096374512,0.4885924160480499,-0.8744803667068481,0.03433800861239433,-0.010687478817999363,0.00520714744925499
2024-06-15 20:32:35.662020,-28.71656730864564,2.711227796224106,-0.17373046391283614,0.05786953121423721,0.4812869131565094,-0.8745942711830139,0.033430274575948715,-0.014560017734766006,0.009922044351696968
2024-06-15 20:32:35.680251,-28.67452066411504,2.699693314263247,-0.17044291510645182,0.05829257890582085,0.47939810156822205,-0.8820425868034363,0.03331948444247246,-0.013823214918375015,-0.0035356860607862473
2024-06-15 20:32:35.704403,-28.64048070883899,2.6804343152379264,-0.16286951597737706,0.04686186835169792,0.48212990164756775,-0.8791794776916504,0.031043987721204758,-0.016224630177021027,4.317390266805887e-05
2024-06-15 20:32:35.719449,-28.60533597046469,2.672712786381227,-0.1409807073586167,0.053321219980716705,0.4834453761577606,-0.8735838532447815,0.03280758112668991,-0.014920376241207123,0.008488222025334835
2024-06-15 20:32:35.730982,-28.568413675358894,2.6603407524733953,-0.13662256642047255,0.06032321974635124,0.4780537188053131,-0.8779735565185547,0.031774889677762985,-0.01634247601032257,-0.004373176954686642
2024-06-15 20:32:35.764930,-28.536545720238905,2.631893014580292,-0.13099918629943644,0.04144914448261261,0.4828392565250397,-0.8800011277198792,0.02944669872522354,-0.01982111856341362,-0.0051314025186002254
2024-06-15 20:32:35.774064,-28.503432963142686,2.616630316549664,-0.11178939932069458,0.04559270665049553,0.4786088168621063,-0.8809031248092651,0.02733755111694336,-0.018677864223718643,0.005036528687924147
2024-06-15 20:32:35.799909,-28.473255479842276,2.6066729679568432,-0.09953783420837015,0.05879470705986023,0.4769238233566284,-0.8866053819656372,0.023372329771518707,-0.017676811665296555,0.0005925983423367143
2024-06-15 20:32:35.824116,-28.45012162912344,2.5830793601295037,-0.09979586061252325,0.04315917193889618,0.4764971137046814,-0.8872173428535461,0.02014712616801262,-0.01643207110464573,-0.006733098067343235
2024-06-15 20:32:35.842899,-28.42977108049139,2.5660171206959883,-0.08376175141208031,0.03948793560266495,0.47853606939315796,-0.8827093243598938,0.01962457224726677,-0.01708897389471531,0.004523648414760828
2024-06-15 20:32:35.860726,-28.409338569589295,2.554786582153195,-0.0670262738313483,0.047875627875328064,0.47641047835350037,-0.8833053112030029,0.01687815971672535,-0.015145751647651196,0.004002300091087818
2024-06-15 20:32:35.876283,-28.397857021594504,2.5409025151178515,-0.07017117573774248,0.044247809797525406,0.48148223757743835,-0.8783490657806396,0.01176993828266859,-0.009652781300246716,-0.006158098112791777
2024-06-15 20:32:35.887381,-28.383972954559162,2.529021614500026,-0.05829741880409761,0.04295744374394417,0.4808305501937866,-0.878424346446991,0.013421394862234592,-0.014444482512772083,0.00402766652405262
2024-06-15 20:32:35.920131,-28.369306830863852,2.5194920065039774,-0.040082978484433054,0.045039452612400055,0.4747481048107147,-0.8842461705207825,0.009835772216320038,-0.01376443449407816,0.0068060532212257385
2024-06-15 20:32:35.934443,-28.35951063204676,2.513804806802884,-0.045297100874117154,0.04603011906147003,0.4747418463230133,-0.8840520977973938,0.008449736051261425,-0.005082566756755114,-0.0036544494796544313
2024-06-15 20:32:35.948511,-28.34816568783537,2.5060335456312903,-0.0352745986799168,0.04880251735448837,0.47340646386146545,-0.890507698059082,0.009662169963121414,-0.011023683473467827,0.0035297528374940157
2024-06-15 20:32:35.980626,-28.342774961032937,2.5085154656209436,-0.020448772622011592,0.06842972338199615,0.46430376172065735,-0.8987284302711487,-5.0159054808318615e-05,-0.008765635080635548,0.003705785609781742
2024-06-15 20:32:35.996538,-28.359611377337018,2.511172836094902,-0.037107487280807,0.10187525302171707,0.473381906747818,-0.8901235461235046,-0.013241955079138279,-0.011114265769720078,-0.020625118166208267
2024-06-15 20:32:36.023023,-28.377195699355216,2.4720787542764526,-0.058609566453295125,0.08669731765985489,0.46484339237213135,-0.9207797050476074,-0.02885271981358528,-0.031433600932359695,-0.036178138107061386
2024-06-15 20:32:36.041025,-28.421209438366777,2.4156261735692395,-0.08478946142843583,0.06038810685276985,0.46112024784088135,-0.9292287826538086,-0.046808864921331406,-0.03219686821103096,-0.042775943875312805
2024-06-15 20:32:36.065014,-28.490894443373833,2.357981297965036,-0.1112413099903341,0.06579876691102982,0.4666457176208496,-0.911977231502533,-0.06125558167695999,-0.039883460849523544,-0.04816552624106407
2024-06-15 20:32:36.076312,-28.572593751130942,2.2852854601944745,-0.1436258448570496,0.06212984770536423,0.4686884880065918,-0.90323805809021,-0.07157855480909348,-0.04540549963712692,-0.05921600013971329
2024-06-15 20:32:36.100762,-28.670736739314854,2.20158853554855,-0.18640290608222954,0.05625799298286438,0.48138582706451416,-0.9076156616210938,-0.0830201730132103,-0.04932332783937454,-0.06862059980630875
2024-06-15 20:32:36.124981,-28.784858955062013,2.1054164838270086,-0.2153534899725484,0.04492385685443878,0.48091921210289,-0.8822653889656067,-0.09595632553100586,-0.058911051601171494,-0.06549987941980362
2024-06-15 20:32:36.136021,-28.897949812244498,2.013644781478248,-0.24984783959139042,0.050803449004888535,0.4754866361618042,-0.8924496173858643,-0.10463330149650574,-0.059769827872514725,-0.07062938809394836
2024-06-15 20:32:36.160783,-29.035339067399306,1.9053194753457265,-0.3115932299359817,0.030540429055690765,0.5015040040016174,-0.8805235624313354,-0.11332230269908905,-0.05530783161520958,-0.09017482399940491
2024-06-15 20:32:36.184079,-29.170894416761964,1.8033718583507048,-0.34813399494360947,0.026235714554786682,0.4918577969074249,-0.9138457179069519,-0.12716761231422424,-0.05954965949058533,-0.0682549849152565
2024-06-15 20:32:36.198790,-29.328367843171193,1.710492171252521,-0.37107636024184426,0.07399711012840271,0.47684532403945923,-0.9314690232276917,-0.1493099331855774,-0.0730758085846901,-0.07423505187034607
2024-06-15 20:32:36.206168,-29.51732161146501,1.5784946033954992,-0.4344224694514515,0.07953306287527084,0.46212950348854065,-0.916093111038208,-0.17189675569534302,-0.0864851176738739,-0.11078944802284241
2024-06-15 20:32:36.245001,-29.725369173583598,1.4130785207551917,-0.4918286352802484,0.03491409122943878,0.4813910722732544,-0.909988522529602,-0.1833825558423996,-0.0951642096042633,-0.11244003474712372
2024-06-15 20:32:36.260905,-29.964118436021394,1.2499633580915321,-0.5399902201087123,0.007974665611982346,0.5082346796989441,-0.8957790732383728,-0.20162945985794067,-0.0941929817199707,-0.11025530844926834
2024-06-15 20:32:36.280902,-30.218693246766108,1.0778036375846005,-0.575218414856934,0.02316949889063835,0.5148295164108276,-0.8788487315177917,-0.21752843260765076,-0.11538886278867722,-0.1066904067993164
2024-06-15 20:32:36.305000,-30.473636887726006,0.8869041725118283,-0.5869675141681197,0.012490582652390003,0.5059694647789001,-0.8790491819381714,-0.22405090928077698,-0.12835943698883057,-0.09642714262008667
2024-06-15 20:32:36.314470,-30.739980114410653,0.697151805693648,-0.6092729910066772,0.010000769048929214,0.5063600540161133,-0.8834542632102966,-0.23874405026435852,-0.12709660828113556,-0.10430393368005753
2024-06-15 20:32:36.340932,-31.02092970063537,0.5078965485809976,-0.6255557884620173,0.01588958501815796,0.5079833269119263,-0.8743276596069336,-0.2481444627046585,-0.13784395158290863,-0.10029634833335876
2024-06-15 20:32:36.364639,-31.315177665174105,0.28664921900453644,-0.6005733043556379,-0.016686920076608658,0.5138766765594482,-0.8634008169174194,-0.2580935060977936,-0.15994228422641754,-0.08422184735536575
2024-06-15 20:32:36.374382,-31.626292781868187,0.056127946618439256,-0.5905086470876538,-0.04142408072948456,0.5314048528671265,-0.822720468044281,-0.2589500844478607,-0.15918311476707458,-0.08822742849588394
2024-06-15 20:32:36.406423,-31.909650009775337,-0.13747686033503984,-0.5467015212984846,-0.07194677740335464,0.5445887446403503,-0.8261752128601074,-0.24047891795635223,-0.1432396024465561,-0.048133738338947296
2024-06-15 20:32:36.425104,-32.18658344476809,-0.2835414295713278,-0.4874448811327167,-0.05812201648950577,0.5468397736549377,-0.8149572610855103,-0.23263013362884521,-0.12032800167798996,-0.024872157722711563
2024-06-15 20:32:36.435837,-32.44715857669866,-0.41680111500134753,-0.4290741111662142,-0.017902277410030365,0.535385251045227,-0.822829008102417,-0.22636719048023224,-0.1279992163181305,-0.0208654273301363
2024-06-15 20:32:36.461020,-32.69762161356303,-0.5653262732263458,-0.3484720893075251,-0.055320508778095245,0.5447797775268555,-0.8395631909370422,-0.21687057614326477,-0.1265222579240799,-0.005970633588731289
2024-06-15 20:32:36.481269,-32.9412510461628,-0.6435969861026656,-0.28601104988438986,-0.05117397382855415,0.5450742840766907,-0.8272858262062073,-0.2055966556072235,-0.07980149239301682,0.01206846535205841
2024-06-15 20:32:36.502948,-33.17854547830738,-0.7132013628610028,-0.20652529704753503,-0.016703613102436066,0.5554256439208984,-0.8179516792297363,-0.1971433460712433,-0.09253358095884323,0.019294027239084244
2024-06-15 20:32:36.520940,-33.40894141939025,-0.8067348271288036,-0.11170873105133702,-0.0496751070022583,0.5648438930511475,-0.8095430731773376,-0.19018785655498505,-0.09409551322460175,0.02897716872394085
2024-06-15 20:32:36.542242,-33.62560868024139,-0.8500811285924086,-0.0216432469763372,-0.03953111544251442,0.5692227482795715,-0.8197194337844849,-0.18453559279441833,-0.07248799502849579,0.04510859027504921
2024-06-15 20:32:36.563100,-33.835251091531184,-0.8801616018622621,0.07865601158472388,-0.023419583216309547,0.5576422810554504,-0.8169344663619995,-0.18237332999706268,-0.07075899094343185,0.05492405593395233
2024-06-15 20:32:36.580262,-34.03066621877983,-0.9015578631284147,0.17296462895214845,-0.01896277442574501,0.5467960238456726,-0.8190276622772217,-0.17394596338272095,-0.0605274997651577,0.05779534578323364
2024-06-15 20:32:36.604677,-34.22472896857282,-0.9198207217519709,0.25151424566631486,-0.01730908453464508,0.5658887624740601,-0.812744677066803,-0.16072283685207367,-0.05314771831035614,0.051176201552152634
2024-06-15 20:32:36.628041,-34.406271981617174,-0.9239698482293421,0.34188068995419835,-0.04356193169951439,0.5679181218147278,-0.8088544011116028,-0.15059953927993774,-0.03637645021080971,0.06813792884349823
2024-06-15 20:32:36.641032,-34.58107018285614,-0.882281468465052,0.4225033357825297,-0.007347749546170235,0.5721294283866882,-0.8004931211471558,-0.14498107135295868,-0.019521059468388557,0.072223961353302
2024-06-15 20:32:36.656550,-34.741446439662624,-0.8623501226933085,0.4933984048505877,0.005450024269521236,0.5728396773338318,-0.8021886348724365,-0.13674794137477875,-0.029368441551923752,0.05883792042732239
2024-06-15 20:32:36.667404,-34.89326446943908,-0.8531570615964416,0.5608611971390086,-0.04106641188263893,0.5825621485710144,-0.8177861571311951,-0.13137726485729218,-0.015662137418985367,0.062486857175827026
2024-06-15 20:32:36.700363,-35.045342046404,-0.7913941155312492,0.6285080310090496,-0.014346962794661522,0.5808953642845154,-0.7969857454299927,-0.1249140202999115,0.0023416425101459026,0.07821386307477951
2024-06-15 20:32:36.715046,-35.180091433444595,-0.737179488994273,0.6980772963261846,0.005671839229762554,0.5787056684494019,-0.8002836108207703,-0.11345533281564713,-0.004590204916894436,0.07060212641954422
2024-06-15 20:32:36.742895,-35.3084170275708,-0.7031798211621545,0.7396054868100969,-0.034985996782779694,0.5812498331069946,-0.814953088760376,-0.11052685976028442,0.012090123258531094,0.05884076654911041
2024-06-15 20:32:36.760830,-35.440075754011964,-0.623350704577161,0.8036336010805005,-0.012147298082709312,0.5888922810554504,-0.8006699085235596,-0.10814475268125534,0.019008399918675423,0.0846538171172142
2024-06-15 20:32:36.785064,-35.55700176241341,-0.5403226582222216,0.8689032089542597,0.0073707373812794685,0.5803129076957703,-0.7953541278839111,-0.1018141657114029,0.01965928263962269,0.07798890769481659
2024-06-15 20:32:36.802138,-35.67051950641902,-0.47366961687641745,0.875863011635944,-0.007249083369970322,0.5856202840805054,-0.7914684414863586,-0.09300459921360016,0.038650378584861755,0.05158128961920738
2024-06-15 20:32:36.811882,-35.76930111729033,-0.3853668502132299,0.9255751561277067,-0.013528763316571712,0.5964145660400391,-0.7918751239776611,-0.07901212573051453,0.036120690405368805,0.08104491978883743
2024-06-15 20:32:36.844271,-35.85022861367123,-0.276847230534907,0.9611691928833471,-0.0028183956164866686,0.5830942392349243,-0.7953938841819763,-0.06668633222579956,0.05698437988758087,0.0782005786895752
2024-06-15 20:32:36.862641,-35.92915144953072,-0.1627340727925272,0.9545074105650575,0.016880428418517113,0.5934007167816162,-0.791045069694519,-0.06265190988779068,0.06962443143129349,0.05467202514410019
2024-06-15 20:32:36.872388,-35.998450548849675,-0.0710342541827169,0.9745055641246202,-0.012158961966633797,0.5960488319396973,-0.7962181568145752,-0.058983366936445236,0.058657288551330566,0.06703102588653564
2024-06-15 20:32:36.905025,-36.06357298749116,0.05558344247038238,0.9890304950031812,-0.009980320930480957,0.5984025001525879,-0.7938108444213867,-0.05461994186043739,0.0833345502614975,0.07496635615825653
2024-06-15 20:32:36.917549,-36.12183108601678,0.19154582508383758,0.9760024427699108,0.02551758661866188,0.5952736735343933,-0.789615273475647,-0.04867061972618103,0.08542735129594803,0.0598527230322361
2024-06-15 20:32:36.940997,-36.16944091962636,0.2967634218244295,0.9807831483020966,-0.0052688997238874435,0.591945469379425,-0.796482503414154,-0.04093983396887779,0.07819904386997223,0.0636976957321167
2024-06-15 20:32:36.964825,-36.2104527904977,0.4352848075145921,0.9807403528980783,0.009167100302875042,0.5884765386581421,-0.804177463054657,-0.03661943972110748,0.09389113634824753,0.07051526010036469
2024-06-15 20:32:36.979915,-36.2516115104362,0.5769654491805765,0.9666597044806854,0.03537146747112274,0.590674638748169,-0.789854109287262,-0.028896544128656387,0.09339120984077454,0.058475740253925323
2024-06-15 20:32:37.000868,-36.27912351241301,0.6909181374981006,0.9516208018670809,0.012436524033546448,0.5940101742744446,-0.8063457012176514,-0.02483154460787773,0.08995102345943451,0.05197065696120262
2024-06-15 20:32:37.024896,-36.3080527786426,0.8230324589012474,0.9304504170912148,0.018533077090978622,0.5935308933258057,-0.8021325469017029,-0.024485092610120773,0.0998150184750557,0.0528201200067997
2024-06-15 20:32:37.042498,-36.33327666724745,0.9515655200234862,0.9039459747386861,0.033566754311323166,0.5922571420669556,-0.7897862792015076,-0.018918823450803757,0.09613991528749466,0.04417077451944351
2024-06-15 20:32:37.060943,-36.34977498918762,1.0695965249665955,0.8699409708212785,0.02428533509373665,0.5964550375938416,-0.7875862717628479,-0.012002167291939259,0.09878646582365036,0.03967456892132759
2024-06-15 20:32:37.084433,-36.364091065687965,1.2030028193399325,0.8311744179178728,0.039867039769887924,0.5988878011703491,-0.7772161364555359,-0.005169349256902933,0.10388502478599548,0.037834059447050095
2024-06-15 20:32:37.094335,-36.36450429213275,1.3190877539781172,0.7942334998744176,0.038860008120536804,0.5971153974533081,-0.7815176248550415,0.005281110759824514,0.09626185894012451,0.032360851764678955
2024-06-15 20:32:37.105817,-36.3498023099443,1.4321756229528415,0.7481332981539752,0.024112926796078682,0.594326913356781,-0.8012396097183228,0.013569568283855915,0.10490024834871292,0.030061740428209305
2024-06-15 20:32:37.144870,-36.33692398826424,1.555253817527473,0.7000571974118421,0.03418251499533653,0.592951238155365,-0.7942253351211548,0.016374388709664345,0.10769946128129959,0.02779446728527546
2024-06-15 20:32:37.153178,-36.32073302483673,1.674393981158769,0.6493516872826658,0.033804066479206085,0.6024076342582703,-0.7796165347099304,0.025181151926517487,0.110182985663414,0.02510976418852806
2024-06-15 20:32:37.181018,-36.292538003942916,1.80736858623222,0.5862273991385253,0.035969384014606476,0.6139919757843018,-0.7692357301712036,0.03742096573114395,0.12368807196617126,0.022821543738245964
2024-06-15 20:32:37.199434,-36.244555925023576,1.944620810716803,0.5228565838540297,0.029557328671216965,0.6117741465568542,-0.782349169254303,0.049242738634347916,0.12734901905059814,0.02710430696606636
2024-06-15 20:32:37.212351,-36.18429999616572,2.088224684242675,0.47752707293188795,0.01952790841460228,0.6040430665016174,-0.796657383441925,0.05696732923388481,0.13113120198249817,0.04305988922715187
2024-06-15 20:32:37.240799,-36.117705651758094,2.249765701746058,0.43020330685466124,0.03907240182161331,0.596132755279541,-0.7868635058403015,0.06466120481491089,0.13756293058395386,0.04386676475405693
2024-06-15 20:32:37.261222,-36.045599344690274,2.3963206438801987,0.3718101253299446,0.025376055389642715,0.6040577292442322,-0.7828734517097473,0.07388714700937271,0.13899441063404083,0.03824293240904808
2024-06-15 20:32:37.267718,-35.95995901778207,2.566987647888365,0.3355151137303051,0.020083686336874962,0.5993438959121704,-0.7889238595962524,0.07854826003313065,0.14741022884845734,0.062373094260692596
2024-06-15 20:32:37.306002,-35.869243860320545,2.754336748614053,0.29931759240889694,0.05877510830760002,0.5949520468711853,-0.7741314172744751,0.08657074719667435,0.14334425330162048,0.06114175170660019
2024-06-15 20:32:37.323825,-35.75965689018227,2.9002336447103447,0.2697216890441441,0.03329470008611679,0.5833932161331177,-0.8012263774871826,0.09545550495386124,0.12693150341510773,0.058005061000585556
2024-06-15 20:32:37.342748,-35.64674020282362,3.0676934480163673,0.24806411968138573,0.005473685450851917,0.5819685459136963,-0.8109576106071472,0.10080340504646301,0.14629267156124115,0.07729053497314453
2024-06-15 20:32:37.360691,-35.532375515360926,3.2695863693625395,0.24041318723306074,0.062319859862327576,0.580148458480835,-0.8033612370491028,0.10568095743656158,0.1415562480688095,0.08780447393655777
2024-06-15 20:32:37.375616,-35.41374537476156,3.4267618287692265,0.24931697914640705,0.060013025999069214,0.5828391909599304,-0.8191729784011841,0.1014239490032196,0.11475472152233124,0.07892788201570511
2024-06-15 20:32:37.387374,-35.311825291966635,3.580466271417078,0.24869319077611446,0.0701698586344719,0.5772180557250977,-0.8164923191070557,0.08779546618461609,0.11061041802167892,0.07660387456417084
2024-06-15 20:32:37.421095,-35.20700237877445,3.7289319589715295,0.279565939309263,0.0956617072224617,0.5735948085784912,-0.8207286596298218,0.08649509400129318,0.08330990374088287,0.08286871761083603
2024-06-15 20:32:37.434369,-35.102688314675426,3.8424531180717265,0.29399276625978443,0.07557383924722672,0.5567778944969177,-0.8431861996650696,0.07828604429960251,0.07933337241411209,0.06389064341783524
2024-06-15 20:32:37.448383,-35.02712251679299,3.9514616565646605,0.2940446863696471,0.07891714572906494,0.568622887134552,-0.8280342221260071,0.06764334440231323,0.07386338710784912,0.055942319333553314
2024-06-15 20:32:37.480619,-34.952639303894,4.036920129686214,0.33880977287033714,0.07584269344806671,0.5783438682556152,-0.8199551701545715,0.06703662127256393,0.04446350783109665,0.0693696141242981
2024-06-15 20:32:37.495864,-34.87605239273065,4.1350456155103785,0.3714188035152705,0.08174210786819458,0.5672760605812073,-0.8294296264648438,0.060095611959695816,0.056320685893297195,0.06440843641757965
2024-06-15 20:32:37.528866,-34.81194082208632,4.226789997102459,0.3767334644219073,0.11436699330806732,0.5628941059112549,-0.8262709379196167,0.05230863392353058,0.047055941075086594,0.043408654630184174
2024-06-15 20:32:37.540727,-34.74913381757347,4.271767219673817,0.4164785486456231,0.07514476031064987,0.5667298436164856,-0.8300445675849915,0.051225967705249786,0.023933270946145058,0.04983131214976311
2024-06-15 20:32:37.564841,-34.69895924793056,4.34343212576653,0.4399492664287554,0.07014494389295578,0.57390296459198,-0.81804358959198,0.0434240959584713,0.043626125901937485,0.04787464439868927
2024-06-15 20:32:37.582352,-34.65115475392964,4.417800506110098,0.4458940122863259,0.11048821359872818,0.572888195514679,-0.7952656745910645,0.05029299482703209,0.03330356255173683,0.037887413054704666
2024-06-15 20:32:37.593078,-34.58431110761731,4.4537674285057385,0.4930871509956761,0.07568340748548508,0.5714392066001892,-0.8039625883102417,0.05775298550724983,0.014746682718396187,0.04749646037817001
2024-06-15 20:32:37.623891,-34.51541840455398,4.513626779504907,0.5014501840258279,0.09251023083925247,0.5606423616409302,-0.8144240379333496,0.055712923407554626,0.03269235044717789,0.03217519074678421
2024-06-15 20:32:37.642878,-34.44905970167272,4.556100310858631,0.5164674754940116,0.09737684577703476,0.5697953104972839,-0.7988117933273315,0.06301586329936981,0.01594453677535057,0.029714427888393402
2024-06-15 20:32:37.654334,-34.36581677116319,4.585364683244374,0.5427629567466202,0.07207823544740677,0.5696866512298584,-0.8067435622215271,0.07116150856018066,0.01637115143239498,0.032517530024051666
2024-06-15 20:32:37.684409,-34.279869085742334,4.6347661608506066,0.5547304086678346,0.11018286645412445,0.5675375461578369,-0.808912992477417,0.07801447808742523,0.014983376488089561,0.02717544138431549
2024-06-15 20:32:37.699444,-34.178724229418194,4.649717444943764,0.5902715114574075,0.098029226064682,0.5575711727142334,-0.8137356638908386,0.08815457671880722,-0.004355194512754679,0.028760544955730438
2024-06-15 20:32:37.705480,-34.07749399572944,4.673757149501271,0.6034143428852459,0.08686597645282745,0.5611477494239807,-0.8095636963844299,0.09190034121274948,0.01151974592357874,0.018443642184138298
2024-06-15 20:32:37.744785,-33.97254813913219,4.691101134238049,0.6105322004131926,0.10097289830446243,0.5687709450721741,-0.8094378709793091,0.09517518430948257,-0.0018518452998250723,0.011157931759953499
2024-06-15 20:32:37.761105,-33.857254545942375,4.680169416471443,0.6418993105679471,0.06781075894832611,0.5675943493843079,-0.8285450339317322,0.09821721166372299,-0.009912922978401184,0.021424470469355583
2024-06-15 20:32:37.780929,-33.737104688252685,4.708108732158204,0.6737301265343222,0.1012813150882721,0.5404985547065735,-0.8606635928153992,0.08728062361478806,-0.002696117153391242,0.028276735916733742
2024-06-15 20:32:37.805020,-33.63859628494817,4.716390763413667,0.6821443326223962,0.12583130598068237,0.5317034125328064,-0.8700782060623169,0.07347585260868073,-0.011702394112944603,0.0015360545367002487
2024-06-15 20:32:37.814708,-33.56458094000733,4.689395721379661,0.674427979768427,0.08062542974948883,0.5416743159294128,-0.8600407242774963,0.06169358640909195,-0.00885298103094101,-0.010538889095187187
2024-06-15 20:32:37.841005,-33.51045169083498,4.689915669530229,0.6805966544451535,0.0922476127743721,0.5610707402229309,-0.8457388281822205,0.05259319394826889,-0.007480636239051819,0.001063726143911481
2024-06-15 20:32:37.864605,-33.45748357382153,4.673006682466216,0.6893266500606348,0.09090551733970642,0.5530951619148254,-0.8518206477165222,0.041509825736284256,-0.01608929969370365,-0.006108438596129417
2024-06-15 20:32:37.874374,-33.41669368409821,4.6591063937315935,0.6772096276687677,0.07871565222740173,0.5441879034042358,-0.8489620089530945,0.03173016756772995,-0.0023378385230898857,-0.011587310582399368
2024-06-15 20:32:37.886126,-33.38184947404739,4.663470884611232,0.6818878270025505,0.11263614147901535,0.5437424778938293,-0.850348174571991,0.024872727692127228,-0.012080995365977287,-0.004672104027122259
2024-06-15 20:32:37.925115,-33.36180969902258,4.6290087382671095,0.6676830078804808,0.08571574091911316,0.5447824001312256,-0.8458082675933838,0.015498905442655087,-0.014453021809458733,-0.02546597830951214
2024-06-15 20:32:37.934489,-33.348729886762,4.608111347614632,0.6435185456489162,0.0833749920129776,0.5446258187294006,-0.8438899517059326,0.012743828818202019,-0.007110786624252796,-0.02169020101428032
2024-06-15 20:32:37.960997,-33.3329453195901,4.585678445059371,0.6538755670298885,0.0957431048154831,0.5425325632095337,-0.8527631163597107,0.011474558152258396,-0.023264260962605476,-0.013026482425630093
2024-06-15 20:32:37.981409,-33.33346099887244,4.5653838186011475,0.628518062849393,0.1019182950258255,0.5375639796257019,-0.8548891544342041,-0.00664424616843462,-0.006173725239932537,-0.032492589205503464
2024-06-15 20:32:37.987481,-33.357919906290256,4.557181188294786,0.5763507855161282,0.1421416699886322,0.5523984432220459,-0.8293910026550293,-0.011172131635248661,-0.006654795259237289,-0.04886027052998543
2024-06-15 20:32:38.020899,-33.37763524732949,4.508303500820528,0.544649903226542,0.11816733330488205,0.5597317218780518,-0.8301724195480347,-0.010960795916616917,-0.025074103847146034,-0.05512435734272003
2024-06-15 20:32:38.042198,-33.39597772034556,4.455444239946976,0.48484546054499794,0.09757488965988159,0.542254626750946,-0.8467451333999634,-0.01887628249824047,-0.01282142847776413,-0.06845235824584961
2024-06-15 20:32:38.063046,-33.422144175055884,4.400933780841574,0.42844674761877793,0.0992334857583046,0.5420158505439758,-0.8478623032569885,-0.02171321213245392,-0.019833873957395554,-0.07202142477035522
2024-06-15 20:32:38.080463,-33.45405481885818,4.3213488435194085,0.3649442644297744,0.07200246304273605,0.5399169921875,-0.8586298823356628,-0.030616799369454384,-0.020585734397172928,-0.08362764120101929
2024-06-15 20:32:38.104853,-33.50876804920457,4.2578840064121195,0.29125692865165054,0.07538977265357971,0.5513055324554443,-0.8484671115875244,-0.04235359653830528,-0.012174233794212341,-0.08269615471363068
2024-06-15 20:32:38.122814,-33.56734716662118,4.198679072912802,0.23714830344894175,0.09455770999193192,0.5490293502807617,-0.8332523107528687,-0.047846805304288864,-0.02262994647026062,-0.07885430008172989
2024-06-15 20:32:38.140855,-33.62358694424707,4.117366097730624,0.1591543466361397,0.07530480623245239,0.5408414602279663,-0.8532395958900452,-0.05224170163273811,-0.018880333751440048,-0.09567254781723022
2024-06-15 20:32:38.156378,-33.69654019477198,4.037787136823982,0.07896578467596777,0.06214368715882301,0.5469724535942078,-0.8459938764572144,-0.0579802468419075,-0.015066689811646938,-0.0937078595161438
2024-06-15 20:32:38.183020,-33.77327737009707,3.949881748432272,0.022062793347137215,0.04503638297319412,0.5561201572418213,-0.8439373970031738,-0.06100519746541977,-0.023920131847262383,-0.08448302000761032
2024-06-15 20:32:38.206280,-33.85631881002608,3.8716304055455515,-0.02915093388260369,0.027385901659727097,0.5630117654800415,-0.8471564054489136,-0.06901509314775467,-0.014580330811440945,-0.07223375886678696
2024-06-15 20:32:38.215795,-33.94274460868884,3.8239855672164813,-0.06318330524743763,0.052412331104278564,0.5568423271179199,-0.8358010649681091,-0.07448069751262665,-0.015389008447527885,-0.05305720120668411
2024-06-15 20:32:38.243016,-34.033551973704164,3.764069440269837,-0.08973932753439183,0.052992966026067734,0.5655941963195801,-0.8276419043540955,-0.07658063620328903,-0.022774461656808853,-0.05361494421958923
2024-06-15 20:32:38.260796,-34.12486135762347,3.7061959667718494,-0.13033629776418817,0.03520287200808525,0.5639639496803284,-0.8324505686759949,-0.0780041366815567,-0.012976591475307941,-0.05056122690439224
2024-06-15 20:32:38.285050,-34.220647930543734,3.669578041970942,-0.13273115952235034,0.04209508001804352,0.5714603066444397,-0.8248802423477173,-0.07782277464866638,-0.017229722812771797,-0.02394144982099533
2024-06-15 20:32:38.295214,-34.3091227859575,3.6379226764888717,-0.13040278538689,0.055743224918842316,0.5581939816474915,-0.8322123289108276,-0.08149006962776184,-0.018622390925884247,-0.022405121475458145
2024-06-15 20:32:38.305449,-34.40783267984252,3.5976151688756874,-0.14154949402979217,0.052675917744636536,0.562905490398407,-0.834395170211792,-0.0866495668888092,-0.018192850053310394,-0.027452291920781136
2024-06-15 20:32:38.345011,-34.509844970191246,3.5617963762076714,-0.13052950407229227,0.036471374332904816,0.572911262512207,-0.8334791660308838,-0.08660168200731277,-0.018977845087647438,-0.008731827139854431
2024-06-15 20:32:38.354665,-34.620241317746164,3.542612082376398,-0.10920968889801233,0.043823424726724625,0.574805736541748,-0.8131124377250671,-0.08909802883863449,-0.01571839116513729,0.0015859638806432486
2024-06-15 20:32:38.365478,-34.724828589411985,3.5324464130138917,-0.08690303145058453,0.0715659111738205,0.576733410358429,-0.7909052968025208,-0.0842212364077568,-0.021519824862480164,0.000801418733317405
2024-06-15 20:32:38.405012,-34.81441335056587,3.505279335590166,-0.07536575471505536,0.05722673237323761,0.5794807076454163,-0.8023389577865601,-0.07489658892154694,-0.019981808960437775,-0.0061047254130244255
2024-06-15 20:32:38.417427,-34.90005709256866,3.493662891359267,-0.05665970085770855,0.04873109236359596,0.5826870799064636,-0.7995313405990601,-0.0682576447725296,-0.010756881907582283,0.0073721809312701225
2024-06-15 20:32:38.441017,-34.97306156951234,3.492569847648653,-0.024518563183820837,0.06760562211275101,0.5777407884597778,-0.7978830337524414,-0.06248011812567711,-0.017981862649321556,0.012395741418004036
2024-06-15 20:32:38.463212,-35.03770247981734,3.4768634007653856,-0.010679165018690241,0.05849404260516167,0.5756304264068604,-0.8066021800041199,-0.05644506588578224,-0.014147964306175709,-0.00038039471837691963
2024-06-15 20:32:38.482089,-35.10083050322118,3.4688981195326813,0.0007131945314211878,0.04354459047317505,0.5824440121650696,-0.8117364048957825,-0.053394388407468796,-0.005092765670269728,0.006660107523202896
2024-06-15 20:32:38.500889,-35.15923203571938,3.479322482310002,0.03113801867308155,0.06214780732989311,0.579453706741333,-0.804353654384613,-0.04776095226407051,-0.0067500644363462925,0.019592005759477615
2024-06-15 20:32:38.513262,-35.20996668087423,3.4840476925551815,0.053747338878105524,0.0723787471652031,0.5757915377616882,-0.8062965273857117,-0.044437989592552185,-0.00808465015143156,0.009784385561943054
2024-06-15 20:32:38.543046,-35.26022321278719,3.4802362335549026,0.056231486683367096,0.05476100370287895,0.5815991759300232,-0.8073368668556213,-0.040400464087724686,0.00027861306443810463,0.002231079153716564
2024-06-15 20:32:38.558978,-35.30683242368335,3.4912520480256637,0.08073308278349534,0.05192980915307999,0.5859745144844055,-0.8009010553359985,-0.036480676382780075,-0.00011088821338489652,0.02017795294523239
2024-06-15 20:32:38.585015,-35.341242916721875,3.5101701779227183,0.10813088586501393,0.06910942494869232,0.5769920945167542,-0.8152248859405518,-0.03511153161525726,-0.001268347492441535,0.01815069653093815
2024-06-15 20:32:38.602774,-35.382551900822115,3.513100115633242,0.10422580524833848,0.04134811460971832,0.5800800323486328,-0.8179740309715271,-0.03558257594704628,0.012381239794194698,0.0052780830301344395
2024-06-15 20:32:38.621011,-35.42286367730353,3.5427636271986076,0.1268018082708388,0.029892154037952423,0.5855385065078735,-0.8157270550727844,-0.035134635865688324,0.01956186071038246,0.0326225683093071
2024-06-15 20:32:38.638081,-35.46109224608809,3.6012577941374198,0.15731922688458802,0.05855149030685425,0.5823177695274353,-0.8184666633605957,-0.03584466874599457,0.027708614245057106,0.04101163148880005
2024-06-15 20:32:38.647346,-35.50813517399656,3.647582271522562,0.1568601634671691,0.055861178785562515,0.5850250124931335,-0.8145499229431152,-0.03733935207128525,0.034657109528779984,0.025465955957770348
2024-06-15 20:32:38.681012,-35.553525196125875,3.699444751664115,0.17923048708220213,0.03290645778179169,0.5890234112739563,-0.8113833665847778,-0.036249320954084396,0.038626596331596375,0.0475902259349823
2024-06-15 20:32:38.698785,-35.59227968947653,3.7885552415575097,0.21788226079103984,0.06162792444229126,0.5806206464767456,-0.8124902844429016,-0.0368654765188694,0.044828128069639206,0.061347655951976776
2024-06-15 20:32:38.707483,-35.635982654880856,3.868482542111822,0.22451317385593217,0.07857535779476166,0.582240641117096,-0.8108230233192444,-0.03783570975065231,0.0476735383272171,0.04079470783472061
2024-06-15 20:32:38.740369,-35.6835071111258,3.929834289444638,0.2461640464316528,0.039925917983055115,0.5922146439552307,-0.8094499111175537,-0.03753885254263878,0.045551273971796036,0.0539347268640995
2024-06-15 20:32:38.782944,-35.77366219307538,4.135826391509876,0.3126750945479147,0.08200832456350327,0.5939237475395203,-0.7826857566833496,-0.0327763669192791,0.05917993187904358,0.06293782591819763
2024-06-15 20:32:38.801111,-35.80513911986539,4.223350143081712,0.34153923385655055,0.08083486557006836,0.5951939821243286,-0.773254930973053,-0.020920123904943466,0.0461881048977375,0.0632357969880104
2024-06-15 20:32:38.824685,-35.82038410209286,4.312071739079239,0.3899230666373044,0.08339261263608932,0.5994532108306885,-0.786808967590332,-0.011280003935098648,0.03935430943965912,0.07267556339502335
2024-06-15 20:32:38.842905,-35.82356014005691,4.396381886646584,0.4271072301286621,0.08991429954767227,0.5847683548927307,-0.7965260148048401,-0.004352671094238758,0.03739139810204506,0.06454990059137344
2024-06-15 20:32:38.856602,-35.81985476243218,4.46251220507747,0.467595711074425,0.06679981201887131,0.5869132876396179,-0.8023588061332703,0.0008568407502025366,0.03379977121949196,0.06394684314727783
2024-06-15 20:32:38.884174,-35.81284015815458,4.533999099364939,0.5173766377055637,0.06330575048923492,0.5846850275993347,-0.805932879447937,0.0028236142825335264,0.031424373388290405,0.07288365066051483
2024-06-15 20:32:38.902881,-35.80836638424822,4.613060246555129,0.5791067134853755,0.08116085827350616,0.5940554141998291,-0.7876891493797302,0.008209886960685253,0.025702575221657753,0.07861050218343735
2024-06-15 20:32:38.917381,-35.79260230764383,4.691911365428342,0.6338191434189692,0.08814474940299988,0.5903844237327576,-0.7744040489196777,0.016885090619325638,0.02580774761736393,0.07533155381679535
2024-06-15 20:32:38.945011,-35.75793909760601,4.7680389463700115,0.686337588525108,0.08535873144865036,0.5847717523574829,-0.7948271632194519,0.025859907269477844,0.02649609185755253,0.07474367320537567
2024-06-15 20:32:38.962311,-35.72004862318537,4.836464635248845,0.7430347220211193,0.07172976434230804,0.5821235775947571,-0.7985079884529114,0.030722878873348236,0.026607129722833633,0.07695470005273819
2024-06-15 20:32:38.980671,-35.67704575217097,4.918669377004534,0.80341263378868,0.08267821371555328,0.5822425484657288,-0.7947934865951538,0.036667607724666595,0.027331793680787086,0.08140678703784943
2024-06-15 20:32:38.996948,-35.62847969207759,4.996530118448094,0.862132570496073,0.09049395471811295,0.5885745882987976,-0.7969996929168701,0.04078765586018562,0.024687550961971283,0.07937607169151306
2024-06-15 20:32:39.023010,-35.57513249956521,5.081307707086761,0.9202898703705862,0.10241201519966125,0.58326655626297,-0.7914776802062988,0.045234475284814835,0.025303170084953308,0.08090771734714508
2024-06-15 20:32:39.040065,-35.51161174028409,5.155084849180301,0.9817553830417656,0.10711808502674103,0.5824471116065979,-0.8037641644477844,0.051015663892030716,0.01605169102549553,0.07789277285337448
2024-06-15 20:32:39.065010,-35.44529743363243,5.206452567493851,1.0394520186732732,0.07651984691619873,0.5773702263832092,-0.8147726058959961,0.051383864134550095,0.015851890668272972,0.0731973946094513
2024-06-15 20:32:39.077450,-35.38297878764524,5.285112441070303,1.10013259319843,0.08599026501178741,0.5789344310760498,-0.7979820966720581,0.054061830043792725,0.024195097386837006,0.08267979323863983
2024-06-15 20:32:39.106333,-35.30987527295859,5.363131557525243,1.1669233055446921,0.11295551061630249,0.5743851065635681,-0.8014214038848877,0.059158626943826675,0.013577980920672417,0.08077237010002136
2024-06-15 20:32:39.124046,-35.23407383354979,5.422868392006174,1.2246100160575621,0.1028820052742958,0.574329137802124,-0.8161051869392395,0.060925524681806564,0.01377161592245102,0.0722363144159317
2024-06-15 20:32:39.136197,-35.164177092678464,5.488958156188864,1.2798645388956729,0.09480080008506775,0.5763382315635681,-0.8017702698707581,0.06124023720622063,0.017402535304427147,0.07517492771148682
2024-06-15 20:32:39.160916,-35.08124493577617,5.554328616074587,1.3507631831408744,0.10264304280281067,0.5753247141838074,-0.8172540068626404,0.06436723470687866,0.008593429811298847,0.08060208708047867
2024-06-15 20:32:39.185008,-35.002315269727504,5.610664016348852,1.4081782869125306,0.0976286306977272,0.5689628720283508,-0.8332707285881042,0.05771024525165558,0.013090676628053188,0.07202685624361038
2024-06-15 20:32:39.198348,-34.940546453968494,5.677057723949607,1.4575417715915053,0.11525844037532806,0.5715913772583008,-0.817584753036499,0.05303557217121124,0.012788202613592148,0.06914651393890381
2024-06-15 20:32:39.221000,-34.86841282614399,5.735423824841481,1.5269362801154232,0.12607762217521667,0.5599590539932251,-0.8292136192321777,0.0496537946164608,0.0009866979671642184,0.07300948351621628
2024-06-15 20:32:39.241702,-34.81286972781344,5.786096998293806,1.5557433499918925,0.12250635772943497,0.5605922341346741,-0.8256657719612122,0.0442793183028698,0.01422839518636465,0.04724729433655739
2024-06-15 20:32:39.262182,-34.76459736585438,5.821608859335995,1.5874775828145353,0.1156858280301094,0.5694607496261597,-0.8234883546829224,0.03962397575378418,0.002231796272099018,0.04508119449019432
2024-06-15 20:32:39.280867,-34.71654015485417,5.847760373007504,1.6408993737992612,0.09495437145233154,0.568956196308136,-0.8225737810134888,0.03620501235127449,-0.0005811164155602455,0.05287200212478638
2024-06-15 20:32:39.295271,-34.67307966116538,5.898653820060562,1.661778301596638,0.1246599555015564,0.563747227191925,-0.8257563710212708,0.03278394415974617,0.012267442420125008,0.039379555732011795
2024-06-15 20:32:39.328757,-34.636463017024944,5.926650765468445,1.6889866803205011,0.120078444480896,0.5681053996086121,-0.820497453212738,0.03095567598938942,0.000560270098503679,0.035416703671216965
2024-06-15 20:32:39.339443,-34.59921799548086,5.953398213145038,1.7191814525372466,0.10761424899101257,0.5624682307243347,-0.8254803419113159,0.02670104056596756,0.0037461076863110065,0.03706502541899681
2024-06-15 20:32:39.365023,-34.56876559706636,5.986043529169937,1.736678582921821,0.12820646166801453,0.5632760524749756,-0.8246524930000305,0.023416098207235336,0.0025659031234681606,0.028257234022021294
2024-06-15 20:32:39.382871,-34.53990463272847,6.005805827759722,1.754958196853185,0.12742185592651367,0.5600336790084839,-0.8235333561897278,0.021777212619781494,-0.0013540490763261914,0.022439226508140564
2024-06-15 20:32:39.387188,-34.519297952002546,6.030843166822873,1.7548991797498878,0.14920693635940552,0.5619882941246033,-0.8164176344871521,0.01869736611843109,0.0016499597113579512,0.008139131590723991
2024-06-15 20:32:39.425102,-34.501105743148216,6.028504253918967,1.7441111093992643,0.15220026671886444,0.5635557174682617,-0.8101110458374023,0.01940494403243065,-0.011804139241576195,-0.00989757664501667
2024-06-15 20:32:39.434526,-34.48113768510968,6.008284759541613,1.7311360978537673,0.1221267357468605,0.5657344460487366,-0.8084583878517151,0.020380770787596703,-0.012511937879025936,-0.017015863209962845
2024-06-15 20:32:39.448359,-34.45602307953155,5.987964946760825,1.702800204308323,0.13163240253925323,0.559852123260498,-0.8196048736572266,0.01990402117371559,-0.01257338933646679,-0.0288748349994421
2024-06-15 20:32:39.484668,-34.42727822840955,5.944727714880529,1.674942317283074,0.12384088337421417,0.5525489449501038,-0.8277079463005066,0.022453464567661285,-0.023259881883859634,-0.038874551653862
2024-06-15 20:32:39.493910,-34.41103603856325,5.905882294636551,1.6354447206950655,0.12357355654239655,0.5632527470588684,-0.8195601105690002,0.022323936223983765,-0.015846094116568565,-0.04734306409955025
2024-06-15 20:32:39.521012,-34.39215739569734,5.869942266110767,1.5917598979807217,0.15026961266994476,0.5593795776367188,-0.8116510510444641,0.02099534124135971,-0.023527842015028,-0.05559941753745079
2024-06-15 20:32:39.543476,-34.371554130065995,5.790519118894566,1.5386318051303065,0.12764523923397064,0.5574090480804443,-0.8229226469993591,0.018772250041365623,-0.03518027812242508,-0.07648958265781403
2024-06-15 20:32:39.562652,-34.36006916697662,5.7072556978175255,1.4726288056944172,0.10241212695837021,0.5661647319793701,-0.8251649737358093,0.015980402007699013,-0.028780432417988777,-0.08114876598119736
2024-06-15 20:32:39.580890,-34.34954384546563,5.647675103913858,1.422868636435053,0.12936903536319733,0.5656673312187195,-0.8248203992843628,0.012312742881476879,-0.02994617633521557,-0.0715685784816742
2024-06-15 20:32:39.604976,-34.33463695760208,5.57650922851738,1.347250438195078,0.17939136922359467,0.5440014004707336,-0.8374841213226318,0.00789329782128334,-0.040035609155893326,-0.1032836064696312
2024-06-15 20:32:39.623009,-34.338253542767596,5.460741364067072,1.2359240109742766,0.1845250129699707,0.5475755929946899,-0.82562255859375,0.00680958665907383,-0.05482089892029762,-0.1424195021390915
2024-06-15 20:32:39.638302,-34.34111880712442,5.297580097626515,1.1452203794569766,0.14070561528205872,0.5501002669334412,-0.811583399772644,0.006809563841670752,-0.07896015048027039,-0.14930297434329987
2024-06-15 20:32:39.664144,-34.3436289016444,5.121736450557713,1.0353918980985237,0.11794935166835785,0.5578915476799011,-0.8260115385055542,0.003099840134382248,-0.0780610591173172,-0.16735264658927917
2024-06-15 20:32:39.682871,-34.35963544996432,4.924785384519457,0.904236577943529,0.09135978668928146,0.5678713917732239,-0.8089580535888672,0.002771733794361353,-0.07897239178419113,-0.18479925394058228
2024-06-15 20:32:39.701176,-34.366294884405086,4.724070030474877,0.8075794760692109,0.07742565125226974,0.5750302672386169,-0.8131922483444214,0.0026636868715286255,-0.09092165529727936,-0.16803601384162903
2024-06-15 20:32:39.725006,-34.36178354445829,4.53715806185607,0.7048800580178116,0.10806461423635483,0.5474514961242676,-0.8261573910713196,0.004263604059815407,-0.09257881343364716,-0.17317529022693634
2024-06-15 20:32:39.729848,-34.37099746964864,4.321374029841973,0.5941800338490945,0.1138574406504631,0.5544166564941406,-0.8230858445167542,0.0011964505538344383,-0.11083324998617172,-0.19318464398384094
2024-06-15 20:32:39.760737,-34.37985964009673,4.062827890981718,0.4800967181636937,0.056842587888240814,0.5567421913146973,-0.8222889304161072,-0.0009608425898477435,-0.11820295453071594,-0.20030830800533295
2024-06-15 20:32:39.776385,-34.39149145225326,3.8011885302010944,0.3930347514127741,0.010945277288556099,0.5689138770103455,-0.8241760730743408,-0.0008653668337501585,-0.12458251416683197,-0.181317538022995
2024-06-15 20:32:39.802748,-34.40345452858454,3.5693334899567803,0.3275094383319626,-0.017244689166545868,0.5765097141265869,-0.8252500891685486,-0.0014615461695939302,-0.10933581739664078,-0.1524450033903122
2024-06-15 20:32:39.820654,-34.413877397257984,3.385988801075424,0.2654649337264923,0.005315660499036312,0.5775309205055237,-0.8223158717155457,-0.0012570710387080908,-0.09007712453603745,-0.13181933760643005
2024-06-15 20:32:39.844166,-34.422770303557336,3.2158349150286547,0.21983402736701066,0.025532590225338936,0.574022650718689,-0.814768373966217,-0.0007415389991365373,-0.09183303266763687,-0.11785256862640381
2024-06-15 20:32:39.862628,-34.42616832266942,3.054220046104871,0.1871367245311828,0.030039329081773758,0.5727507472038269,-0.8286156058311462,-0.0030225329101085663,-0.09184730052947998,-0.10452695190906525
2024-06-15 20:32:39.875821,-34.436591191342856,2.913677804874457,0.15043296879840032,0.027239538729190826,0.5735307335853577,-0.8149815797805786,-0.0027506379410624504,-0.07628307491540909,-0.0953453779220581
2024-06-15 20:32:39.904211,-34.43838753109457,2.7770620686431546,0.1136409542149366,0.019825711846351624,0.5711480379104614,-0.8235064744949341,-0.0004886560491286218,-0.07310301810503006,-0.09055525809526443
2024-06-15 20:32:39.923129,-34.44301839935184,2.646097033289568,0.09584589017835347,-0.002164120553061366,0.5740822553634644,-0.8265459537506104,-0.002000633394345641,-0.06769970804452896,-0.07165823876857758
2024-06-15 20:32:39.935782,-34.443452116364135,2.558565170868093,0.0857172065570072,0.03168897330760956,0.5665649175643921,-0.8262766599655151,0.0001595762587385252,-0.05721677094697952,-0.05452372506260872
2024-06-15 20:32:39.965029,-34.444227342834935,2.4671847102927273,0.07655696238466805,0.045942582190036774,0.5652907490730286,-0.8251594305038452,0.001277353148907423,-0.05995326116681099,-0.057749100029468536
2024-06-15 20:32:39.980423,-34.44722579588057,2.3842598104664257,0.05392362979584325,0.048785530030727386,0.5660622119903564,-0.8150507211685181,0.0016061733476817608,-0.04893319308757782,-0.059035055339336395
2024-06-15 20:32:40.006132,-34.44454153153675,2.2897541114589557,0.056496069802319145,0.09491369873285294,0.5681686997413635,-0.8001147508621216,0.004870596807450056,-0.0859760046005249,-0.06171746924519539
2024-06-15 20:32:40.025074,-34.430580624873244,2.1277268698640324,0.06312511523736031,0.0791473463177681,0.5606108903884888,-0.8147687911987305,0.00896497257053852,-0.11951623857021332,-0.08315896987915039
2024-06-15 20:32:40.042117,-34.41478581241759,1.955426810313998,0.05354641859170542,0.05836932361125946,0.5621632933616638,-0.8243603706359863,0.012852277606725693,-0.12090255320072174,-0.09290017932653427
2024-06-15 20:32:40.060914,-34.401108358604645,1.770738601878559,0.06583956181359163,0.055947430431842804,0.5664950013160706,-0.8111081123352051,0.017897645011544228,-0.14183162152767181,-0.08964770287275314
2024-06-15 20:32:40.085131,-34.37474724350298,1.5563781306978806,0.08883289339644371,0.04972633346915245,0.558301568031311,-0.8238109946250916,0.01967793144285679,-0.1644427627325058,-0.09784524142742157
2024-06-15 20:32:40.094022,-34.363709657804236,1.314410781943951,0.09473274276641329,0.02896188385784626,0.5733327865600586,-0.8128334879875183,0.01646653562784195,-0.17322304844856262,-0.11283954232931137
2024-06-15 20:32:40.105785,-34.344752467762866,1.0753267335151189,0.13020094796083087,0.03307988867163658,0.5692152380943298,-0.8096191883087158,0.020048530772328377,-0.1897517740726471,-0.09507903456687927
2024-06-15 20:32:40.144607,-34.32155031515234,0.8316255839290639,0.17378415827105745,0.046643029898405075,0.5667650699615479,-0.8055923581123352,0.02143983729183674,-0.20079602301120758,-0.10209716856479645
2024-06-15 20:32:40.154688,-34.29278838855741,0.547977325930249,0.187333292573019,0.037809476256370544,0.5536398887634277,-0.8169757723808289,0.019228044897317886,-0.21987280249595642,-0.12967820465564728
2024-06-15 20:32:40.167250,-34.27281008523512,0.23585905188224895,0.22776818588226638,-0.013624826446175575,0.5753397941589355,-0.8088545799255371,0.027414636686444283,-0.23109813034534454,-0.11709707975387573
2024-06-15 20:32:40.205000,-34.24115898862129,-0.039336480162811646,0.27208077235044303,-0.02563885785639286,0.5783572793006897,-0.7924272418022156,0.04125181585550308,-0.21004313230514526,-0.10067811608314514
2024-06-15 20:32:40.214068,-34.19785217418882,-0.29660806170123816,0.2982854601118581,-0.009660785086452961,0.583863377571106,-0.7886581420898438,0.052277009934186935,-0.2027675360441208,-0.10980652272701263
2024-06-15 20:32:40.240786,-34.12874090507204,-0.565999046859592,0.33114379266149696,-0.035779256373643875,0.5686925053596497,-0.81487637758255,0.059256721287965775,-0.20066319406032562,-0.10049349069595337
2024-06-15 20:32:40.261700,-34.05527880545397,-0.8014409502743677,0.372034320953365,-0.023269589990377426,0.5638500452041626,-0.8269310593605042,0.06199236959218979,-0.1892090141773224,-0.08836064487695694
2024-06-15 20:32:40.267544,-33.98358913992552,-1.0391581070955511,0.404465046308364,-0.013617084361612797,0.5565840601921082,-0.8273903131484985,0.060797180980443954,-0.1914440542459488,-0.09407039731740952
2024-06-15 20:32:40.300487,-33.9141227009719,-1.288322447522264,0.42796999507862576,-0.04798407107591629,0.5644199848175049,-0.8301942348480225,0.06459317356348038,-0.1829311102628708,-0.09423518180847168
2024-06-15 20:32:40.323723,-33.841838808985656,-1.504086095690557,0.4687189570277747,-0.04953606799244881,0.5639142990112305,-0.8132431507110596,0.07219075411558151,-0.17147423326969147,-0.07224832475185394
2024-06-15 20:32:40.342636,-33.75425870835317,-1.7043477757638599,0.5128474752339048,-0.03224281221628189,0.5590716004371643,-0.8152748346328735,0.08030369132757187,-0.16682597994804382,-0.06836001574993134
2024-06-15 20:32:40.360875,-33.66755628702903,-1.9059450779850176,0.5295430188863548,-0.04256423935294151,0.5685454607009888,-0.8101928234100342,0.08404428511857986,-0.15290015935897827,-0.07898927479982376
2024-06-15 20:32:40.375631,-33.568460487455894,-2.0926079581425308,0.5753125967622862,-0.042072899639606476,0.5642738342285156,-0.8317736387252808,0.08543501794338226,-0.15938279032707214,-0.05675313621759415
2024-06-15 20:32:40.402837,-33.467520536806866,-2.2769895551172596,0.6215439060982811,-0.0672970861196518,0.5507661700248718,-0.8628771901130676,0.07959385216236115,-0.14696896076202393,-0.051153842359781265
2024-06-15 20:32:40.420735,-33.38338285151606,-2.4325473269077116,0.6417841044865561,-0.06794179975986481,0.5394479036331177,-0.8514987230300903,0.06971704959869385,-0.12232527136802673,-0.049911562353372574
2024-06-15 20:32:40.436489,-33.307680449850224,-2.5742844243560543,0.6807727452596929,-0.06678461283445358,0.5513117909431458,-0.8556907176971436,0.0664437934756279,-0.11982475221157074,-0.036116667091846466
2024-06-15 20:32:40.448626,-33.24180327530545,-2.7008576480733226,0.7169965468011498,-0.06837135553359985,0.54836505651474,-0.8554906249046326,0.057808443903923035,-0.10378364473581314,-0.028474608436226845
2024-06-15 20:32:40.480415,-33.185409818423246,-2.7932050073030683,0.7434287385588645,-0.03734835237264633,0.5533992052078247,-0.8406813740730286,0.05531417578458786,-0.09096956253051758,-0.026793165132403374
2024-06-15 20:32:40.496532,-33.122804304490906,-2.906898628679808,0.7733488624657813,-0.05932707339525223,0.5425181984901428,-0.8546028733253479,0.04993399232625961,-0.09452357888221741,-0.02744036726653576
2024-06-15 20:32:40.522157,-33.07380794247982,-2.998324552701837,0.7896052462989406,-0.07941629737615585,0.5459418892860413,-0.8565729260444641,0.0407918281853199,-0.06928879767656326,-0.02287895977497101
2024-06-15 20:32:40.540147,-33.03710250588017,-3.070519865672283,0.8119522912419,-0.05397512763738632,0.551081657409668,-0.8357375860214233,0.03831443190574646,-0.07067445665597916,-0.01607920043170452
2024-06-15 20:32:40.564024,-32.995537389686056,-3.1545582997767085,0.8449276975027811,-0.073285311460495,0.5468078851699829,-0.8393583297729492,0.03785690665245056,-0.07007035613059998,-0.0093922084197402
2024-06-15 20:32:40.582031,-32.95707317937513,-3.202277202969591,0.8553874918864209,-0.07023090124130249,0.5506885647773743,-0.8223095536231995,0.038519930094480515,-0.041865188628435135,-0.007697614841163158
2024-06-15 20:32:40.593154,-32.899443458253145,-3.2214239307604293,0.8564445703821862,-0.0682186484336853,0.5557571649551392,-0.8060361742973328,0.060526035726070404,-0.01945229433476925,-0.0014350451529026031
2024-06-15 20:32:40.623753,-32.82508318875922,-3.2350975425919715,0.8583766601436535,-0.10299332439899445,0.5626012682914734,-0.8160780072212219,0.07447241246700287,0.0018396417144685984,0.006945290137082338
2024-06-15 20:32:40.642867,-32.73784459758523,-3.1992441720912823,0.8570480282675274,-0.09236864745616913,0.5570850968360901,-0.8177679181098938,0.08163744956254959,0.02759147807955742,0.02346588857471943
2024-06-15 20:32:40.653896,-32.632663099461624,-3.144116007752817,0.8650208333804893,-0.07281143963336945,0.5471177697181702,-0.8261388540267944,0.09400000423192978,0.03660162538290024,0.03488390892744064
2024-06-15 20:32:40.684782,-32.517461713825604,-3.061431018321112,0.8508233780561186,-0.07810936123132706,0.5426731705665588,-0.8296931385993958,0.1008717492222786,0.06846416741609573,0.03395839408040047
2024-06-15 20:32:40.698743,-32.39823393167386,-2.956560720691559,0.8264797834413998,-0.06601854413747787,0.5442569851875305,-0.8305988907814026,0.10773266851902008,0.08153737336397171,0.04047361761331558
2024-06-15 20:32:40.720886,-32.27270530001278,-2.8534775847470226,0.8402078233428907,-0.07530967891216278,0.5446360111236572,-0.8268014192581177,0.11675645411014557,0.07911223918199539,0.06074164807796478
2024-06-15 20:32:40.744952,-32.12748523297455,-2.719507052715219,0.8243507921327656,-0.07108838856220245,0.5324481725692749,-0.8353735208511353,0.1254890114068985,0.1081942617893219,0.05810802802443504
2024-06-15 20:32:40.761011,-31.984385939673615,-2.573560851190856,0.8120569852352716,-0.05031665414571762,0.5447518229484558,-0.8327890038490295,0.13091044127941132,0.1074330136179924,0.06350234150886536
2024-06-15 20:32:40.780609,-31.824890777270063,-2.418512782267216,0.8300524526249925,-0.03564126417040825,0.5232721567153931,-0.8608256578445435,0.13067466020584106,0.10308928042650223,0.08230693638324738
2024-06-15 20:32:40.804786,-31.678318332776175,-2.2709964910073963,0.8198496974697272,-0.007011363282799721,0.5167800188064575,-0.8691419959068298,0.12248774617910385,0.10044124722480774,0.05847809463739395
2024-06-15 20:32:40.864187,-31.310526306349328,-1.903686846690682,0.8143507014967795,-0.009289885871112347,0.5244630575180054,-0.8511931300163269,0.10033497959375381,0.08727917075157166,0.056492771953344345
2024-06-15 20:32:40.871276,-31.198401920934398,-1.8022213983623807,0.8228042878942867,-0.018704507499933243,0.5196908712387085,-0.8553388118743896,0.09837394207715988,0.0680585652589798,0.053502798080444336
2024-06-15 20:32:40.906318,-31.08297855415035,-1.7031159938357303,0.822552157864378,-0.030934268608689308,0.5103443264961243,-0.8785620927810669,0.09274351596832275,0.07376378774642944,0.051345180720090866
2024-06-15 20:32:40.919363,-30.982622584675354,-1.5967204295871493,0.8255276123824177,-0.014933762140572071,0.508175790309906,-0.8669324517250061,0.08637721091508865,0.06933699548244476,0.05162341892719269
2024-06-15 20:32:40.927170,-30.892067936659327,-1.5099262275960355,0.8295314372573674,-0.019031474366784096,0.5181692242622375,-0.8595188856124878,0.08111182600259781,0.0616627000272274,0.045183438807725906
2024-06-15 20:32:40.960998,-30.80532794929475,-1.4225603174270502,0.8188464600745288,-0.021353377029299736,0.5213298797607422,-0.8601610660552979,0.07846565544605255,0.06581317633390427,0.03873402997851372
2024-06-15 20:32:40.979557,-30.71996424504793,-1.3374815601346675,0.8316914312215311,-0.017033223062753677,0.5141776204109192,-0.867763102054596,0.07377421110868454,0.05375061556696892,0.04888784885406494
2024-06-15 20:32:40.987046,-30.634064370951265,-1.2510905527479959,0.8418392246983188,-0.001646474003791809,0.4962918758392334,-0.8792684674263,0.06552984565496445,0.051761772483587265,0.04513890668749809
2024-06-15 20:32:41.019794,-30.562801592245936,-1.1783725168626318,0.8277357911967417,0.00974990427494049,0.498138427734375,-0.8805084824562073,0.0567195825278759,0.04634721204638481,0.022987795993685722
2024-06-15 20:32:41.042364,-30.506896493889382,-1.1398823731772,0.8206084354369805,-0.027420639991760254,0.5108770132064819,-0.876315176486969,0.05045358091592789,0.037561096251010895,0.022309081628918648
2024-06-15 20:32:41.062395,-30.455458339250015,-1.075226628555096,0.8330374053748467,-0.01733836531639099,0.5126749873161316,-0.8647884726524353,0.0497857965528965,0.04088924452662468,0.03922438621520996
2024-06-15 20:32:41.080323,-30.40333716569365,-1.0134748882690106,0.8378468190458878,0.012653211131691933,0.5044803619384766,-0.8679409623146057,0.04309972748160362,0.029610658064484596,0.02620725706219673
2024-06-15 20:32:41.104685,-30.35704897368847,-0.9892954849986365,0.8196468195070368,-0.019524838775396347,0.5048800706863403,-0.8737396001815796,0.03655640408396721,0.028671544045209885,0.010002026334404945
2024-06-15 20:32:41.128022,-30.320367442750918,-0.9448480289747786,0.8242017552706419,-0.019144581630825996,0.5100752711296082,-0.8656299710273743,0.03505070134997368,0.028854217380285263,0.027985256165266037
2024-06-15 20:32:41.140874,-30.28268528909996,-0.898744465520604,0.8410892912717927,0.009738820604979992,0.5049429535865784,-0.864853024482727,0.03183286637067795,0.016738204285502434,0.026277612894773483
2024-06-15 20:32:41.155682,-30.25091124908106,-0.8824777830428369,0.8184012171180085,-0.018775835633277893,0.509071946144104,-0.86684650182724,0.027920499444007874,0.02137913554906845,0.0019765221513807774
2024-06-15 20:32:41.167471,-30.209014868712202,-0.8665448726999012,0.816870134166015,-0.07963350415229797,0.5080507397651672,-0.875282883644104,0.03457878157496452,0.032191578298807144,0.024927349761128426
2024-06-15 20:32:41.200343,-30.16592320523859,-0.7724199033778066,0.8087684092324692,-0.10480966418981552,0.5118634104728699,-0.8757806420326233,0.03827785328030586,0.09649471938610077,0.04862045496702194
2024-06-15 20:32:41.214946,-30.1228725229,-0.618553030293756,0.7673118823739892,-0.07276390492916107,0.5109646320343018,-0.8638765811920166,0.03987859562039375,0.13323692977428436,0.05009637027978897
2024-06-15 20:32:41.243097,-30.078059651755545,-0.4554924557826037,0.7531043418484222,-0.08505242317914963,0.5194671154022217,-0.8591382503509521,0.04446021094918251,0.14905235171318054,0.07650795578956604
2024-06-15 20:32:41.260360,-30.0171651002103,-0.2156724011098498,0.7480654231490982,-0.030042173340916634,0.5004684925079346,-0.8696339130401611,0.05143863707780838,0.1788855791091919,0.1021585613489151
2024-06-15 20:32:41.284938,-29.95302279371471,0.043353801998489434,0.7225272391207147,-0.00795578584074974,0.49525415897369385,-0.8706571459770203,0.05453159287571907,0.20006287097930908,0.0942305400967598
2024-06-15 20:32:41.303080,-29.89787926145061,0.2826964337853767,0.6835730694585452,-0.0608566515147686,0.503788948059082,-0.8861913681030273,0.04628682881593704,0.2139235883951187,0.09652096778154373
2024-06-15 20:32:41.313476,-29.85564137162325,0.5665419401769023,0.6980299652496706,-0.059744518250226974,0.5189191699028015,-0.8567177653312683,0.05058615282177925,0.2249138206243515,0.1440119445323944
2024-06-15 20:32:41.344577,-29.79513614086069,0.8916325844081812,0.7324437133002212,-0.017665382474660873,0.5099430084228516,-0.868414044380188,0.05704941600561142,0.23508431017398834,0.16454431414604187
2024-06-15 20:32:41.362589,-29.74590413732324,1.2268492508882685,0.7373966676655382,-0.017199615016579628,0.5048643350601196,-0.8826889395713806,0.04195130243897438,0.25775548815727234,0.16036777198314667
2024-06-15 20:32:41.373046,-29.704601983412175,1.5997280606994821,0.784708694355129,0.05882079899311066,0.4949403703212738,-0.8726164698600769,0.03704741969704628,0.24073663353919983,0.19203971326351166
2024-06-15 20:32:41.404999,-29.666352924060103,1.9143921009976193,0.8831406315574455,0.08778536319732666,0.49236276745796204,-0.8580748438835144,0.027733495458960533,0.188885897397995,0.18895576894283295
2024-06-15 20:32:41.419204,-29.640473337294925,2.205276837700357,0.8819733629004609,0.067656010389328,0.4924924075603485,-0.8775036334991455,0.017148761078715324,0.20673216879367828,0.14000479876995087
2024-06-15 20:32:41.440915,-29.626092373997462,2.465237252605627,0.9558958599572742,0.028195923194289207,0.5051295757293701,-0.8750163316726685,0.014162637293338776,0.16970357298851013,0.1770724654197693
2024-06-15 20:32:41.464997,-29.599109711681326,2.741856285453147,1.07225955169096,0.047712765634059906,0.4745124280452728,-0.8893553614616394,0.007851331494748592,0.16602063179016113,0.19937142729759216
2024-06-15 20:32:41.479790,-29.596992353038623,3.0219996959123936,1.1226614385671883,0.12223321944475174,0.4810997545719147,-0.8752740621566772,-0.0006319297826848924,0.15825733542442322,0.15354178845882416
2024-06-15 20:32:41.500911,-29.604577278111922,3.224676168022413,1.1884861060327168,0.06132763624191284,0.5022481083869934,-0.8640129566192627,-0.0022979590576142073,0.13051123917102814,0.15040706098079681
2024-06-15 20:32:41.525025,-29.60370984408733,3.4554810666818376,1.2991614241265454,0.049064137041568756,0.5014660358428955,-0.8730224967002869,-0.005890687927603722,0.1342516541481018,0.18456515669822693
2024-06-15 20:32:41.542214,-29.613391637235825,3.6938990649448877,1.3931276449112902,0.11514384299516678,0.4925251603126526,-0.860858678817749,-0.014561589807271957,0.1161167174577713,0.16358976066112518
2024-06-15 20:32:41.560863,-29.623817921003848,3.8600792749985904,1.4540913521218852,0.06151799112558365,0.4895157516002655,-0.880455493927002,-0.0193487461656332,0.1040993481874466,0.13669367134571075
2024-06-15 20:32:41.584365,-29.645548167848244,4.080134309678061,1.5448867643061572,0.07819561660289764,0.5002049207687378,-0.8662816286087036,-0.020105119794607162,0.12082530558109283,0.1696653813123703
2024-06-15 20:32:41.594246,-29.659177810337006,4.314623668507885,1.6544172786620683,0.17947201430797577,0.48228007555007935,-0.8494606614112854,-0.020217299461364746,0.0891481414437294,0.1587875485420227
2024-06-15 20:32:41.620812,-29.680173811845624,4.441215248358548,1.6863126612604413,0.13250069320201874,0.4836755096912384,-0.8695575594902039,-0.026036370545625687,0.06993681937456131,0.0895535945892334
2024-06-15 20:32:41.644848,-29.70938653092577,4.5543492211101695,1.731700655677351,0.05724576115608215,0.4940633177757263,-0.8698070049285889,-0.02632731758058071,0.07432599365711212,0.10810575634241104
2024-06-15 20:32:41.654514,-29.73026983431308,4.713140447142387,1.8323935455775004,0.09953420609235764,0.4939330816268921,-0.8666067123413086,-0.025932790711522102,0.06811729073524475,0.13414502143859863
2024-06-15 20:32:41.680997,-29.76304449704539,4.854101037459464,1.859962110058376,0.13943788409233093,0.4913063049316406,-0.8709713816642761,-0.03303898498415947,0.06990230828523636,0.08439312875270844
2024-06-15 20:32:41.699459,-29.80465059437452,4.953213912505519,1.8843922026156308,0.11367138475179672,0.4953292906284332,-0.8623338341712952,-0.03635633364319801,0.0530540905892849,0.07585056126117706
2024-06-15 20:32:41.707550,-29.835451332436694,5.051440143619942,1.9517267687745552,0.10068154335021973,0.49290886521339417,-0.8678825497627258,-0.03551250696182251,0.04396677017211914,0.09272579848766327
2024-06-15 20:32:41.740430,-29.87319837288477,5.158373158378839,1.9742108977485908,0.13054224848747253,0.4843960106372833,-0.8775948882102966,-0.04258756712079048,0.050606369972229004,0.06557677686214447
2024-06-15 20:32:41.761083,-29.926548980491738,5.218984257073532,1.9837819137664827,0.1040114238858223,0.495876282453537,-0.8544131517410278,-0.04329787567257881,0.03482351824641228,0.04638517647981644
2024-06-15 20:32:41.783072,-29.966888077729834,5.276507256489733,2.01904639389467,0.0830250233411789,0.496399462223053,-0.8658146858215332,-0.03969358652830124,0.031352534890174866,0.06388465315103531
2024-06-15 20:32:41.806159,-30.004850269136764,5.373363607788745,2.0549290061427437,0.14984464645385742,0.48447683453559875,-0.8671811819076538,-0.041418325155973434,0.031221255660057068,0.059357594698667526
2024-06-15 20:32:41.823630,-30.056886065328506,5.416574799572831,2.0418959379893016,0.15185688436031342,0.49036455154418945,-0.8627307415008545,-0.045975878834724426,0.016496580094099045,0.01285473071038723
2024-06-15 20:32:41.843070,-30.115478843123462,5.423107021740302,2.025624079508804,0.0939236581325531,0.5037567615509033,-0.8623934388160706,-0.04910648614168167,0.013619601726531982,0.008348796516656876
2024-06-15 20:32:41.860573,-30.174863922862137,5.460613298020134,2.0340886048811537,0.11003633588552475,0.513736367225647,-0.8583287596702576,-0.05007835477590561,0.014638811349868774,0.022703517228364944
2024-06-15 20:32:41.876689,-30.230335304206395,5.485624170100252,2.012621320319804,0.12415986508131027,0.5006483197212219,-0.8589251637458801,-0.04932186380028725,0.013148976489901543,0.00020515802316367626
2024-06-15 20:32:41.902812,-30.290468289659188,5.491212545501791,1.9845174397627285,0.11084534227848053,0.5012621283531189,-0.8634316325187683,-0.05199449881911278,0.00945996306836605,-0.007075658533722162
2024-06-15 20:32:41.921039,-30.346301671029458,5.508352905223938,1.9643809748724732,0.12744265794754028,0.4927535653114319,-0.8656678199768066,-0.05229884013533592,0.006217048969119787,-0.007812135852873325
2024-06-15 20:32:41.936862,-30.41355854378657,5.500709069769048,1.9234657938665696,0.12778182327747345,0.4996127188205719,-0.8591889142990112,-0.05486953631043434,-0.0002167228958569467,-0.029275480657815933
2024-06-15 20:32:41.948330,-30.48225658645856,5.472997711645837,1.8783987116189444,0.10127338021993637,0.506274938583374,-0.8644705414772034,-0.05834908038377762,-0.0033101318404078484,-0.0346999354660511
2024-06-15 20:32:41.980222,-30.554219459553817,5.464250373753166,1.8415976523709159,0.1225576177239418,0.5075238347053528,-0.8770625591278076,-0.06312595307826996,-0.0018722120439633727,-0.031134193763136864
2024-06-15 20:32:41.997272,-30.63399265396498,5.450717207686432,1.7834882171814457,0.15922494232654572,0.4933696389198303,-0.873620867729187,-0.06992243975400925,-0.007352663204073906,-0.05396900698542595
2024-06-15 20:32:42.028973,-30.732483981796562,5.4028700250032005,1.6971083088521752,0.15066958963871002,0.4973278343677521,-0.8624045848846436,-0.08104070276021957,-0.016158822923898697,-0.08462145924568176
2024-06-15 20:32:42.040053,-30.83249161162389,5.330900321718776,1.607709563631465,0.12460082769393921,0.5010316371917725,-0.8691636323928833,-0.08586825430393219,-0.023779049515724182,-0.09341321885585785
2024-06-15 20:32:42.064296,-30.94513509141574,5.251775995278763,1.5155241012293896,0.11024028062820435,0.5111030340194702,-0.8709779977798462,-0.0932563990354538,-0.02266407385468483,-0.10154642164707184
2024-06-15 20:32:42.082422,-31.07170874201983,5.163451830913567,1.3974587318970186,0.09435489773750305,0.5171090364456177,-0.8538936972618103,-0.09722048789262772,-0.017560992389917374,-0.11669483780860901
2024-06-15 20:32:42.093710,-31.190332052430026,5.080999921687288,1.3004457131339195,0.09933524578809738,0.5164582133293152,-0.8612956404685974,-0.09874146431684494,-0.0237350482493639,-0.10733193159103394
2024-06-15 20:32:42.124635,-31.3112844573472,5.003813234537443,1.1951056265555169,0.12214338034391403,0.5048853158950806,-0.8600960373878479,-0.10201919078826904,-0.021194979548454285,-0.11776972562074661
2024-06-15 20:32:42.142835,-31.444015523488055,4.898501962819601,1.0629741229577392,0.12293168902397156,0.5128114819526672,-0.8526071906089783,-0.10715227574110031,-0.03201686218380928,-0.14603571593761444
2024-06-15 20:32:42.154241,-31.581230608819027,4.7583341013330696,0.9420802015353367,0.06321223080158234,0.5180986523628235,-0.848128616809845,-0.11334311962127686,-0.03750615939497948,-0.14264222979545593
2024-06-15 20:32:42.184995,-31.723926920958935,4.643841347823438,0.8157224489420413,0.04885429888963699,0.5349035263061523,-0.8210000395774841,-0.10650555044412613,-0.02277415059506893,-0.13809452950954437
2024-06-15 20:32:42.199025,-31.846139495777972,4.534010625309164,0.7187304009941281,0.037848297506570816,0.5380385518074036,-0.8211062550544739,-0.09308484196662903,-0.02845001593232155,-0.11417188495397568
2024-06-15 20:32:42.221041,-31.947660012506457,4.447583545985938,0.6424454055364308,0.04988756775856018,0.5269731879234314,-0.8373042941093445,-0.08364272862672806,-0.019916482269763947,-0.09372755140066147
2024-06-15 20:32:42.244951,-32.047886208387226,4.3774336612284985,0.5545035183213433,0.08757922798395157,0.5299422144889832,-0.8212558627128601,-0.0724577084183693,-0.021285541355609894,-0.1007072702050209
2024-06-15 20:32:42.280860,-32.21435499393336,4.2016245919923705,0.4226114448704863,0.028451712802052498,0.5463078618049622,-0.8339189291000366,-0.060663893818855286,-0.009914249181747437,-0.07240361720323563
2024-06-15 20:32:42.305060,-32.288346433212105,4.153752222986575,0.3740885803875257,0.06606020778417587,0.5487945675849915,-0.8201978206634521,-0.05273544415831566,-0.017180945724248886,-0.06255875527858734
