sTimestamp,sRoll,sPitch,sYaw,sAcc_x,sAcc_y,sAcc_z,sGyro_x,sGyro_y,sGyro_z
2024-06-15 20:28:48.543250,-32.00406029957784,1.2612601708136157,-0.28162908332542996,0.026741378009319305,0.5555626749992371,-0.825175404548645,0.009354370646178722,0.02165013924241066,0.013939352706074715
2024-06-15 20:28:48.549417,-31.986479392654225,1.263403356109119,-0.2457053298597777,0.04730278253555298,0.5326229333877563,-0.8414943218231201,0.0071395994164049625,-0.01666279509663582,0.014719687402248383
2024-06-15 20:28:48.574585,-31.983118939582578,1.249886198298252,-0.2845925049711428,-0.004561485722661018,0.5341655611991882,-0.8570143580436707,-0.000658239412587136,0.018682163208723068,-0.017035461962223053
2024-06-15 20:28:48.605946,-31.987592713488937,1.2787426803244981,-0.28334231354876604,0.03043404594063759,0.53972327709198,-0.842376708984375,-0.0006704065599478781,0.006855421233922243,0.013870013877749443
2024-06-15 20:28:48.623896,-31.976582448546875,1.2835517738304218,-0.24094007229450373,0.0247456394135952,0.5268223881721497,-0.8403772711753845,0.006558458786457777,-0.007043146528303623,0.023281484842300415
2024-06-15 20:28:48.641918,-31.967327542221508,1.3038725471065618,-0.28115798703568423,0.04645060747861862,0.5187935829162598,-0.8676722049713135,0.0004775257548317313,0.016833968460559845,-0.01568342000246048
2024-06-15 20:28:48.658190,-31.972217957667237,1.2903276416521918,-0.28039484679806753,0.01056848093867302,0.5308709144592285,-0.8423725962638855,0.005193617660552263,-0.004805001895874739,0.003796811681240797
2024-06-15 20:28:48.683867,-31.96156286256202,1.3049513968303064,-0.24955801011891443,0.008580509573221207,0.5289664268493652,-0.857033371925354,0.008498919196426868,0.005495557561516762,0.024890996515750885
2024-06-15 20:28:48.701502,-31.967511957329098,1.3367768767113923,-0.2753828753294533,0.06006808951497078,0.5377461314201355,-0.8325865268707275,0.003310441505163908,0.013760128989815712,-0.011003145948052406
2024-06-15 20:28:48.726042,-31.965305806227185,1.306795974793033,-0.28476832898141774,0.010768406093120575,0.5426353216171265,-0.8386847972869873,0.005200457759201527,-0.010067508555948734,-0.008040237240493298
2024-06-15 20:28:48.736057,-31.952447975114637,1.3175983458522313,-0.2564324887968265,-0.0017142570577561855,0.5313830971717834,-0.8572405576705933,0.004879629239439964,0.00627432856708765,0.025096019729971886
2024-06-15 20:28:48.762001,-31.94775905024942,1.3555145402039703,-0.2641078871962019,0.06484667211771011,0.5217985510826111,-0.8421555757522583,0.003152571152895689,0.00705978088080883,0.0017637808341532946
2024-06-15 20:28:48.786011,-31.942407597034716,1.3259924348987655,-0.27865701722154884,0.011151647195219994,0.5313946604728699,-0.8536927103996277,0.004985106643289328,-0.006206782069057226,-0.011602669954299927
2024-06-15 20:28:48.794772,-31.941492351685934,1.3400984830821343,-0.27105402949954616,-0.0016502710059285164,0.5360376834869385,-0.8422744274139404,0.0059973192401230335,0.014999067410826683,0.01753666251897812
2024-06-15 20:28:48.821919,-31.931506615119375,1.3790151934255743,-0.2577684311097987,0.06317757070064545,0.5294050574302673,-0.8456998467445374,0.009847916662693024,0.0026502693071961403,0.013827034272253513
2024-06-15 20:28:48.846021,-31.923081576778166,1.3573708575543328,-0.2725851124515397,0.012225421145558357,0.5273043513298035,-0.854735791683197,0.00468188151717186,0.0018342307303100824,-0.010697951540350914
2024-06-15 20:28:48.856641,-31.920680765284906,1.3771137327936664,-0.28632019598561226,0.019063184037804604,0.5341614484786987,-0.8491759300231934,0.004191551357507706,0.016056900843977928,0.005095069296658039
2024-06-15 20:28:48.881995,-31.912405991105437,1.3907448693863078,-0.26237408636407644,0.04020361229777336,0.5293853282928467,-0.8483515381813049,0.00786131527274847,-0.004935268312692642,0.013926135376095772
2024-06-15 20:28:48.906013,-31.90724578318749,1.3875259292965276,-0.2812897349814714,0.011918870732188225,0.5272995233535767,-0.8534644246101379,0.005786495748907328,0.012832569889724255,-0.006227604113519192
2024-06-15 20:28:48.918255,-31.91040816077321,1.4051294612217662,-0.28297844589290416,0.02661280892789364,0.5378717184066772,-0.8413819074630737,0.0027642929926514626,0.0073915463872253895,0.008933205157518387
2024-06-15 20:28:48.941863,-31.900268744950324,1.4116941267877947,-0.2583344830372635,0.027587851509451866,0.5321727991104126,-0.846187174320221,0.004889783915132284,-0.0035949344746768475,0.015625638887286186
2024-06-15 20:28:48.966030,-31.896402857880094,1.43120168066588,-0.28475450852051903,0.032184649258852005,0.5290839672088623,-0.8537803292274475,0.001861864933744073,0.018573053181171417,-0.004670379217714071
2024-06-15 20:28:48.980975,-31.89412840488648,1.4395122066167871,-0.2860762835270487,0.036869920790195465,0.5322258472442627,-0.8498541712760925,0.0067975325509905815,-0.00010808906517922878,0.005333888344466686
2024-06-15 20:28:48.986455,-31.885153536317084,1.4373801203786853,-0.2662762854946958,0.017551735043525696,0.5294585824012756,-0.8612372279167175,0.007279162760823965,-0.0008701526094228029,0.012905152514576912
2024-06-15 20:28:49.026047,-31.89062793293685,1.460428273567776,-0.28952803701799107,0.041026771068573,0.5391901135444641,-0.8410162925720215,0.0023730492684990168,0.014826266095042229,-0.007609649561345577
2024-06-15 20:28:49.043421,-31.889138951697788,1.4502905652921847,-0.29091483222376807,0.022318586707115173,0.5400692224502563,-0.8462660908699036,0.002220780123025179,-0.006631041876971722,-0.001372662140056491
2024-06-15 20:28:49.061878,-31.878821950956482,1.4533056669239222,-0.27464281366071186,0.002941535320132971,0.5288532972335815,-0.8643016219139099,0.0018919215071946383,0.004957388620823622,0.015932409092783928
2024-06-15 20:28:49.085441,-31.874054478915813,1.4888665132290646,-0.28294290756487894,0.05794026330113411,0.5215502977371216,-0.8508893847465515,0.004252624232321978,0.011511476710438728,0.004410215653479099
2024-06-15 20:28:49.095255,-31.872323025961215,1.4727500415521848,-0.2886477697082792,0.02667454443871975,0.5328232049942017,-0.8482927680015564,0.00591364735737443,-0.0061556375585496426,-0.0073281265795230865
2024-06-15 20:28:49.106917,-31.870806723965472,1.4775333084053095,-0.292197920611952,0.0007494685705751181,0.5419347286224365,-0.8532079458236694,0.0044811381958425045,0.01457171980291605,0.008196627721190453
2024-06-15 20:28:49.145928,-31.865069365062663,1.5143874083411115,-0.28272276736627827,0.055652912706136703,0.5352011919021606,-0.8425220847129822,0.007112831808626652,0.006860238965600729,0.013624845072627068
2024-06-15 20:28:49.154557,-31.85736832677347,1.5011260624590028,-0.2923704362493477,0.02501116320490837,0.5343296527862549,-0.8530313372612,0.00409589521586895,-0.0008871565805748105,-0.010031577199697495
2024-06-15 20:28:49.168291,-31.856801421072362,1.5017980890403086,-0.312064299545301,0.0008212103275582194,0.5365607142448425,-0.8592841625213623,-0.0011134289670735598,0.014747501350939274,-0.001015704357996583
2024-06-15 20:28:49.206121,-31.848540307271232,1.5340192930064322,-0.2833349497510671,0.03876492381095886,0.5278728604316711,-0.8495877981185913,0.007083502598106861,0.004049018025398254,0.027521483600139618
2024-06-15 20:28:49.215621,-31.841283231278094,1.546220892350131,-0.2874236183821131,0.04760468751192093,0.523199737071991,-0.8530598878860474,0.004682110156863928,0.006424493156373501,-0.0013076434843242168
2024-06-15 20:28:49.241989,-31.847047910937583,1.542135692174523,-0.32113249624640366,0.0239457618445158,0.5404629707336426,-0.8520622253417969,0.0014742232160642743,0.008932789787650108,-0.013307610526680946
2024-06-15 20:28:49.262403,-31.841638401114935,1.5517147123203485,-0.2943821670837545,0.022665537893772125,0.5365027785301208,-0.8484704494476318,0.006505291443318129,-0.00027334390324540436,0.022523323073983192
2024-06-15 20:28:49.284006,-31.837069004560195,1.5709737113456688,-0.2924735827779855,0.04754287749528885,0.5299167037010193,-0.8503624200820923,0.0027702702209353447,0.005700881592929363,0.000650464091449976
2024-06-15 20:28:49.301223,-31.837239759289446,1.5561649007297291,-0.32309006581512634,0.024138648062944412,0.5316548943519592,-0.8572095036506653,-0.0015555808786302805,0.0008902318077161908,-0.017462560907006264
2024-06-15 20:28:49.324908,-31.83109600413102,1.5554045085760364,-0.30065342800016337,-0.001535090385004878,0.5264397859573364,-0.8568701148033142,0.0029416661709547043,0.00239652581512928,0.021618064492940903
2024-06-15 20:28:49.343847,-31.829661664405318,1.5925302152530523,-0.2887878152666909,0.057821422815322876,0.5293585062026978,-0.8488383889198303,0.003422536188736558,0.008478944189846516,0.012774739414453506
2024-06-15 20:28:49.367086,-31.832458626870437,1.5869119577738937,-0.3202909689158905,0.04308200255036354,0.536791205406189,-0.8423869609832764,0.0034916328731924295,0.002673742128536105,-0.01931612193584442
2024-06-15 20:28:49.378047,-31.83025247576852,1.5752944463259366,-0.3177457896351351,-0.007698664907366037,0.5421952605247498,-0.849609375,0.004010648000985384,0.0051659573800861835,0.008012832142412663
2024-06-15 20:28:49.388336,-31.81696775783285,1.6116806783035929,-0.29701128298610696,0.037314075976610184,0.5290236473083496,-0.8585259318351746,0.006049256306141615,0.009917707182466984,0.023046383634209633
2024-06-15 20:28:49.421227,-31.80750794583238,1.6211394230870027,-0.31020141881003294,0.045662205666303635,0.5154791474342346,-0.8552358150482178,0.003377141896635294,0.005889881402254105,-0.004401451908051968
2024-06-15 20:28:49.435619,-31.81166411594233,1.6164975624940385,-0.3233310701072073,0.017497001215815544,0.5363485217094421,-0.8534060716629028,0.003595532849431038,0.008042151108384132,-0.0017348069231957197
2024-06-15 20:28:49.449461,-31.81141822913221,1.6426540920857198,-0.3031177922692157,0.042831238359212875,0.5384624600410461,-0.847297728061676,0.005549496505409479,0.003533438080921769,0.018981799483299255
2024-06-15 20:28:49.481111,-31.808054360965983,1.6443468050611192,-0.30710005935959755,0.0467718280851841,0.5312281847000122,-0.8535863161087036,0.0032507232390344143,-0.0010323238093405962,-0.005513859912753105
2024-06-15 20:28:49.496500,-31.80803387039847,1.633576557235361,-0.32685734202921146,0.008798765018582344,0.5323026776313782,-0.8542513251304626,0.0006334478384815156,0.007350822910666466,-0.006977675948292017
2024-06-15 20:28:49.524000,-31.804885153191094,1.6465994868267542,-0.30420525977070223,0.02237544395029545,0.5331626534461975,-0.8473377227783203,0.0013297023251652718,-0.0005473042256198823,0.01908755488693714
2024-06-15 20:28:49.541857,-31.800899737810393,1.6637313088124386,-0.3064569009997057,0.044853802770376205,0.5312556624412537,-0.8541203141212463,0.0015448422636836767,0.007274518720805645,0.0021819258108735085
2024-06-15 20:28:49.566038,-31.80291805871013,1.6691258775962794,-0.33402090312765903,0.03492220118641853,0.5327088236808777,-0.8445647954940796,0.0036911028437316418,0.009459508582949638,-0.010771696455776691
2024-06-15 20:28:49.578578,-31.793997831654096,1.6665681851955212,-0.31999428257381807,0.0058128186501562595,0.536400556564331,-0.861418604850769,0.008200853131711483,0.0024601516779512167,0.014525100588798523
2024-06-15 20:28:49.601939,-31.78043307596245,1.6976193991011626,-0.3057112631218371,0.038247089833021164,0.5093448758125305,-0.8562771081924438,0.003874704707413912,0.01200881414115429,0.01694515161216259
2024-06-15 20:28:49.626055,-31.786303623554076,1.7085898568469666,-0.3269611022076575,0.05770217627286911,0.536899209022522,-0.8502941727638245,0.001742874039337039,0.0050127822905778885,-0.010110319592058659
2024-06-15 20:28:49.636971,-31.7873452274025,1.6930736947651075,-0.33306291573571184,0.009931717999279499,0.5388996005058289,-0.8501196503639221,0.0018359506502747536,0.0020810840651392937,-0.0026595264207571745
2024-06-15 20:28:49.661874,-31.785347397070275,1.717020551438584,-0.3156909165511662,0.03444187715649605,0.5316019654273987,-0.8546361327171326,0.002141120843589306,0.006691816262900829,0.01948157325387001
2024-06-15 20:28:49.685977,-31.779309509843984,1.7292328229528608,-0.3141790968670662,0.053344856947660446,0.5180570483207703,-0.8538429737091064,0.0027107601054012775,-0.0019489716505631804,-0.00024289172142744064
2024-06-15 20:28:49.699502,-31.779039717371766,1.7105516152426412,-0.335654332195497,0.018505562096834183,0.5276380777359009,-0.8610528707504272,-0.0014979642583057284,0.002748244907706976,-0.012815767899155617
2024-06-15 20:28:49.721863,-31.785350812164857,1.7245560643621063,-0.3393268928957011,0.010677754878997803,0.5412560701370239,-0.8497465252876282,0.0008374174358323216,0.014090555720031261,0.008201214484870434
2024-06-15 20:28:49.746032,-31.783615944115674,1.7508957284009083,-0.3272443682952279,0.04534519463777542,0.5334429144859314,-0.8422197103500366,0.003940156660974026,0.006383409723639488,0.01342855766415596
2024-06-15 20:28:49.762413,-31.77506454727482,1.7567525088924885,-0.33571833853853944,0.033756110817193985,0.5215372443199158,-0.8565888404846191,0.002448098035529256,0.00721269054338336,-0.0010128635913133621
2024-06-15 20:28:49.781867,-31.77113035831289,1.7636380866278019,-0.3383991077464901,0.03887740895152092,0.526674747467041,-0.8568417429924011,0.0031728092581033707,0.003949787467718124,0.003052180167287588
2024-06-15 20:28:49.806135,-31.775826113367277,1.7658183043552111,-0.336628541286723,0.02582692727446556,0.5367805361747742,-0.8493574261665344,0.002201044699177146,0.003921228460967541,0.0025625473354011774
2024-06-15 20:28:49.817304,-31.774258584952758,1.7819239971398069,-0.337034537335942,0.03949689865112305,0.5325163006782532,-0.8569907546043396,0.0013027745299041271,0.00705837132409215,0.006759770214557648
2024-06-15 20:28:49.827224,-31.77273203767326,1.7868908253268756,-0.33621016551963323,0.04156680405139923,0.5207821726799011,-0.8469091057777405,0.0026185819879174232,0.0009592182468622923,0.0018025845056399703
2024-06-15 20:28:49.865674,-31.772639830119466,1.780329681577138,-0.3412637317730758,0.029360456392169,0.537003219127655,-0.8605645298957825,0.0013668666360899806,-0.0006126866210252047,-0.005549288354814053
2024-06-15 20:28:49.875737,-31.771260131907123,1.786699153143292,-0.35695771889719324,0.010590736754238605,0.5312606692314148,-0.8538960814476013,0.0015502911992371082,0.015942789614200592,0.0005008422303944826
2024-06-15 20:28:49.887130,-31.772018282904995,1.8153929912899271,-0.34313848529811203,0.03841736912727356,0.5343918800354004,-0.8407389521598816,0.0025447800289839506,0.008413891308009624,0.017612958326935768
2024-06-15 20:28:49.926180,-31.763258565294453,1.8295201703710409,-0.34009443540368134,0.05904913321137428,0.5272589325904846,-0.8544095754623413,0.0025431960821151733,0.0008272832492366433,0.004206507466733456
2024-06-15 20:28:49.935100,-31.76738399955314,1.8160636304890578,-0.366393811998551,0.027474144473671913,0.5342608690261841,-0.8499415516853333,0.0020919847302138805,0.003732862416654825,-0.014571920968592167
2024-06-15 20:28:49.961987,-31.76471681068225,1.823368304362975,-0.35133908789206436,0.016030704602599144,0.5351306796073914,-0.859457790851593,0.0030738632194697857,0.0031241578981280327,0.016603684052824974
2024-06-15 20:28:49.981999,-31.75927998010292,1.8503629195101579,-0.33459722701930533,0.05388965085148811,0.5198302268981934,-0.8513522148132324,0.0027718765195459127,0.006273715756833553,0.01542330626398325
2024-06-15 20:28:50.004013,-31.763651301171727,1.8431566430489712,-0.36318578420318703,0.04763823747634888,0.5352271199226379,-0.8511279225349426,-0.0012859688140451908,-0.0001950794830918312,-0.023126870393753052
2024-06-15 20:28:50.021348,-31.76139392365104,1.8248666771121465,-0.3795340287445977,-0.012837008573114872,0.535934567451477,-0.8593732118606567,0.002259157132357359,0.010795286856591702,-0.00044368067756295204
2024-06-15 20:28:50.043623,-31.760294263194666,1.873574890517623,-0.34083265612299807,0.03823671489953995,0.528486430644989,-0.8404348492622375,0.0038907036650925875,0.013564140535891056,0.038146309554576874
2024-06-15 20:28:50.063985,-31.752951809836905,1.8983580184776028,-0.34837249127560455,0.09248194843530655,0.5249665379524231,-0.8480694890022278,0.003417154075577855,-0.001561779878102243,-0.008219640702009201
2024-06-15 20:28:50.081444,-31.754222225022527,1.849693774414908,-0.3924890833311136,0.0013682078570127487,0.5335648059844971,-0.8620949387550354,0.0022798534482717514,-5.350564606487751e-06,-0.026704711839556694
2024-06-15 20:28:50.105930,-31.76050599905894,1.871753577886757,-0.35059347669462226,0.0008616806007921696,0.5400769710540771,-0.8438584208488464,0.0014154301024973392,0.007519182749092579,0.03729395195841789
2024-06-15 20:28:50.123874,-31.746008922545585,1.9228751959467751,-0.3329021661663786,0.0999392494559288,0.5151163339614868,-0.8601582050323486,0.002059594728052616,0.0006050184601917863,0.011382004246115685
2024-06-15 20:28:50.137346,-31.74757986605469,1.873356111020771,-0.4038495822311224,0.01245079468935728,0.5272580981254578,-0.870899498462677,-0.0003126109659206122,0.0069681438617408276,-0.0470065101981163
2024-06-15 20:28:50.165136,-31.772653490497806,1.8719232653989493,-0.39485171513412975,-0.05352339893579483,0.5483179688453674,-0.8242805600166321,-0.006864055525511503,0.024209827184677124,0.02275114133954048
2024-06-15 20:28:50.184002,-31.765034414478656,1.9424974756585753,-0.35657408104533533,0.057616088539361954,0.5232727527618408,-0.8407160639762878,-0.0003651235601864755,0.01631208509206772,0.03553769364953041
2024-06-15 20:28:50.199788,-31.771103037556212,1.9334000905709416,-0.415035857946443,-0.00371741596609354,0.5156728029251099,-0.8292737603187561,-0.0008622490568086505,0.03460221737623215,-0.02555747516453266
2024-06-15 20:28:50.225829,-31.77738339649804,1.9734841229322193,-0.41882693310091745,-0.05038287863135338,0.5312117338180542,-0.837092936038971,-0.00221299403347075,0.05356612429022789,0.03902500122785568
2024-06-15 20:28:50.243914,-31.765143697505376,2.109027306020418,-0.35120432505808885,0.05632482096552849,0.516751766204834,-0.8367833495140076,0.007052268832921982,0.05780348181724548,0.08317331969738007
2024-06-15 20:28:50.262067,-31.75648984782697,2.216671727670054,-0.40680860160647175,0.06482454389333725,0.5119500160217285,-0.835107684135437,0.007680270820856094,0.09008091688156128,0.007689290679991245
2024-06-15 20:28:50.285877,-31.759577093331817,2.281273364387327,-0.4633389557567732,-0.02826578915119171,0.5285974144935608,-0.8399606943130493,0.0024306343402713537,0.0925169438123703,0.024170391261577606
2024-06-15 20:28:50.301303,-31.749656243562374,2.437237532433395,-0.3830799641408921,0.0017354488372802734,0.5311295390129089,-0.8192651867866516,0.014274180866777897,0.09224196523427963,0.11517371237277985
2024-06-15 20:28:50.306427,-31.72722590232805,2.6173775819335456,-0.39294366443688966,0.08565983921289444,0.5127773880958557,-0.836561918258667,0.014162441715598106,0.11486401408910751,0.061294060200452805
2024-06-15 20:28:50.345992,-31.71687816573548,2.7313591384724836,-0.4511082747482489,0.022333024069666862,0.5242986083030701,-0.824927031993866,0.018397502601146698,0.11697090417146683,0.037291817367076874
2024-06-15 20:28:50.355762,-31.682867238763404,2.9051180837405504,-0.39787378035716947,0.008991805836558342,0.528069257736206,-0.8505681157112122,0.025507507845759392,0.11919829249382019,0.11398722231388092
2024-06-15 20:28:50.382059,-31.645898839880708,3.123280515689693,-0.39559647255792557,0.07686862349510193,0.5045458078384399,-0.8571643233299255,0.023827653378248215,0.1455749124288559,0.08693728595972061
2024-06-15 20:28:50.406051,-31.633536197482986,3.29126133436334,-0.44777572940266447,0.04239223152399063,0.5207746028900146,-0.8362491130828857,0.02065626159310341,0.14820906519889832,0.05725417658686638
2024-06-15 20:28:50.418403,-31.61434336591525,3.4765837898962384,-0.4193331675122917,0.006202383432537317,0.5445560216903687,-0.8236733078956604,0.027471598237752914,0.1465364396572113,0.11269240826368332
2024-06-15 20:28:50.442017,-31.57496391025554,3.726175977641429,-0.38427284600726425,0.09472823888063431,0.5221095681190491,-0.8340610861778259,0.031434305012226105,0.15354107320308685,0.1207006499171257
2024-06-15 20:28:50.466013,-31.53639383201248,3.9335191765018602,-0.4091717136571639,0.08302386850118637,0.5132289528846741,-0.8461369276046753,0.030908528715372086,0.15923461318016052,0.07997071743011475
2024-06-15 20:28:50.481034,-31.4988756029016,4.138642136995213,-0.42773157878791,0.029840661212801933,0.5196188688278198,-0.8517303466796875,0.03232968598604202,0.173389732837677,0.09522917866706848
2024-06-15 20:28:50.501954,-31.45922293967509,4.388244143137337,-0.3930910737930003,0.06189529225230217,0.5189359188079834,-0.8485206365585327,0.032602451741695404,0.1709951013326645,0.13110843300819397
2024-06-15 20:28:50.525958,-31.43427567373162,4.635203719844311,-0.3886310403062613,0.11299905180931091,0.5182272791862488,-0.8233562707901001,0.029371846467256546,0.16798624396324158,0.10735372453927994
2024-06-15 20:28:50.543280,-31.409290841747712,4.843269211209471,-0.39444646613685114,0.12045340985059738,0.5208985805511475,-0.8240759372711182,0.028148287907242775,0.14438225328922272,0.09042306989431381
2024-06-15 20:28:50.547086,-31.36900980111756,5.024948401150401,-0.3617636374323699,0.10347640514373779,0.5072236657142639,-0.8398458957672119,0.029095586389303207,0.12436895072460175,0.10180211067199707
2024-06-15 20:28:50.585426,-31.330723175725055,5.2176344409388085,-0.36118691333432695,0.1129043698310852,0.49927493929862976,-0.8455969095230103,0.026971062645316124,0.13408641517162323,0.08177875727415085
2024-06-15 20:28:50.594817,-31.30367221151722,5.3832503066123385,-0.3755735328821952,0.11074549704790115,0.5090195536613464,-0.844960629940033,0.023664163425564766,0.12206908315420151,0.0681271180510521
2024-06-15 20:28:50.621864,-31.279131341829363,5.528546359505081,-0.362413279135888,0.08222020417451859,0.5190578103065491,-0.8404088020324707,0.0253521166741848,0.1123553067445755,0.07879361510276794
2024-06-15 20:28:50.645968,-31.256359491136543,5.699152959027775,-0.3496550193748331,0.12236618250608444,0.5174644589424133,-0.8375687003135681,0.02232546918094158,0.1115061491727829,0.07992106676101685
2024-06-15 20:28:50.655734,-31.228065432499765,5.8401660564240965,-0.3385949153961726,0.14200915396213531,0.5057380199432373,-0.8423101305961609,0.021861607208848,0.08906257152557373,0.06526727974414825
2024-06-15 20:28:50.682142,-31.204238317580174,5.956442343080747,-0.33740560870694414,0.11111339926719666,0.5078122615814209,-0.8470288515090942,0.01857105828821659,0.08876979351043701,0.05503247305750847
2024-06-15 20:28:50.700363,-31.184673240702672,6.079839101947137,-0.33243373791927733,0.12416276335716248,0.5127580761909485,-0.849246084690094,0.014447005465626717,0.08191385120153427,0.056948740035295486
2024-06-15 20:28:50.708485,-31.17249501341254,6.1784930736583314,-0.3204917658053183,0.11361289769411087,0.5206325650215149,-0.8388869166374207,0.015241313725709915,0.07003989815711975,0.05198672413825989
2024-06-15 20:28:50.741337,-31.151543408133524,6.279039861543266,-0.31562186760752564,0.11387432366609573,0.5090199708938599,-0.8485748767852783,0.015470737591385841,0.07186662405729294,0.04900341108441353
2024-06-15 20:28:50.762256,-31.13187929351306,6.3805044560979205,-0.3054301581488088,0.13064652681350708,0.5086349248886108,-0.8531120419502258,0.013843649066984653,0.06404223293066025,0.04835836589336395
2024-06-15 20:28:50.783858,-31.11679823582567,6.466040622621283,-0.302606621978949,0.1264745444059372,0.5092117190361023,-0.845944344997406,0.012827683240175247,0.061077624559402466,0.039575137197971344
2024-06-15 20:28:50.801212,-31.104941027426527,6.5508083928630185,-0.3036551627382517,0.12797385454177856,0.5159377455711365,-0.8457297086715698,0.010985853150486946,0.05808364227414131,0.03590492159128189
2024-06-15 20:28:50.824647,-31.094029800227432,6.61992478462167,-0.2989027117776716,0.12004217505455017,0.5165794491767883,-0.8453043103218079,0.010636544786393642,0.04931263625621796,0.03422052040696144
2024-06-15 20:28:50.843928,-31.07931415766064,6.6856034567936895,-0.2947057739761103,0.11470460891723633,0.5132737755775452,-0.8483872413635254,0.012529484927654266,0.04940386861562729,0.033641792833805084
2024-06-15 20:28:50.861195,-31.065510345348045,6.752468447447176,-0.2854895009082359,0.12162341922521591,0.5122052431106567,-0.8532584309577942,0.010645524598658085,0.04429906606674194,0.03518088161945343
2024-06-15 20:28:50.877708,-31.055271891782194,6.820493716485918,-0.2808173313508298,0.12754784524440765,0.5086966156959534,-0.84751296043396,0.009486610069870949,0.04574887081980705,0.03259347751736641
2024-06-15 20:28:50.904030,-31.04550813636366,6.886973655224945,-0.27714084862793825,0.14151151478290558,0.5128423571586609,-0.8455240726470947,0.010324190370738506,0.039521750062704086,0.028301101177930832
2024-06-15 20:28:50.921223,-31.034426154435316,6.933457361395113,-0.2736254356394973,0.1304161548614502,0.5112703442573547,-0.8493700623512268,0.008182181045413017,0.032583050429821014,0.022418640553951263
2024-06-15 20:28:50.949671,-31.02683439917285,6.974587906803283,-0.279268559276103,0.11130820214748383,0.514223575592041,-0.8488372564315796,0.008698197081685066,0.03810606896877289,0.018829185515642166
2024-06-15 20:28:50.963908,-31.018136153264837,7.0282625215090055,-0.26873171182088895,0.12467721849679947,0.5141041874885559,-0.8489390015602112,0.007329809479415417,0.03332531079649925,0.030098233371973038
2024-06-15 20:28:50.981700,-31.010732228204542,7.076170322121121,-0.2609351842854516,0.13452193140983582,0.513228714466095,-0.8476849794387817,0.0071622636169195175,0.029787590727210045,0.02385777421295643
2024-06-15 20:28:51.005729,-31.00753911476756,7.1171194406294624,-0.2697841746028792,0.1310867965221405,0.5143187046051025,-0.8461653590202332,0.006035706494003534,0.031240541487932205,0.015412811189889908
2024-06-15 20:28:51.023386,-30.99688743475693,7.156748198193877,-0.256557486594723,0.1266593337059021,0.5122684240341187,-0.8506777286529541,0.00770129170268774,0.024738214910030365,0.0259583480656147
2024-06-15 20:28:51.038743,-30.988155037903066,7.195569285888936,-0.2518673344298928,0.13101644814014435,0.508731484413147,-0.8511195182800293,0.006216127425432205,0.02671760320663452,0.017664628103375435
2024-06-15 20:28:51.065609,-30.985166830141186,7.227373207985455,-0.2581731464985484,0.12887220084667206,0.5131224989891052,-0.8492758274078369,0.0051515307277441025,0.02425321936607361,0.011815632693469524
2024-06-15 20:28:51.083434,-30.980132980722885,7.259132733852368,-0.24811414548097077,0.12108556181192398,0.5168479681015015,-0.8482562303543091,0.005740795284509659,0.022273821756243706,0.021337902173399925
2024-06-15 20:28:51.094210,-30.973101300972356,7.302050227502143,-0.24366910639389408,0.13815362751483917,0.511725127696991,-0.8472230434417725,0.006170688662678003,0.02424721233546734,0.018789617344737053
2024-06-15 20:28:51.125737,-30.965711036290404,7.332320772129993,-0.24131114366550585,0.13736103475093842,0.510709822177887,-0.8523960709571838,0.00517655536532402,0.017952891066670418,0.013629279099404812
2024-06-15 20:28:51.143548,-30.961810998274327,7.355940420053543,-0.23956096105154298,0.11740446090698242,0.5132931470870972,-0.8509491086006165,0.004330760333687067,0.022115390747785568,0.016329172998666763
2024-06-15 20:28:51.154287,-30.958071469703743,7.396469908814753,-0.23164263736938256,0.1326916515827179,0.5147239565849304,-0.8489655256271362,0.004601906985044479,0.022052081301808357,0.022014141082763672
2024-06-15 20:28:51.185900,-30.952470714584333,7.425959250556283,-0.22024351855209406,0.1363077312707901,0.5102968215942383,-0.8526702523231506,0.0030784064438194036,0.01571674458682537,0.018663981929421425
2024-06-15 20:28:51.200221,-30.95495007325305,7.453519917630931,-0.22941999776392522,0.1262103021144867,0.5144104957580566,-0.8479045033454895,0.002369006397202611,0.025867225602269173,0.010403749532997608
2024-06-15 20:28:51.207161,-30.951268601290412,7.488529759769124,-0.21877215973469846,0.13436393439769745,0.5102384686470032,-0.849174976348877,0.0015351223992183805,0.019435295835137367,0.0211824681609869
2024-06-15 20:28:51.246035,-30.946487468871403,7.519580653509648,-0.21190915364015792,0.1338403820991516,0.5072258114814758,-0.8556928038597107,0.00014353060396388173,0.02096923068165779,0.016911247745156288
2024-06-15 20:28:51.262305,-30.95253560138145,7.5511216133231205,-0.2243303328935021,0.13679268956184387,0.5114654302597046,-0.8430835008621216,-0.0010847315425053239,0.024769989773631096,0.006619041319936514
2024-06-15 20:28:51.281844,-30.951610110748913,7.572280685598174,-0.2171385572440886,0.12522700428962708,0.5168842077255249,-0.8454655408859253,0.0035654797684401274,0.01629173941910267,0.017207087948918343
2024-06-15 20:28:51.305196,-30.947050959477927,7.606870471102411,-0.21012999608307537,0.12784014642238617,0.5110172033309937,-0.8484116196632385,0.003438051324337721,0.02451677806675434,0.01957031711935997
2024-06-15 20:28:51.315780,-30.946074242426615,7.645726563516967,-0.21263403414625195,0.14730626344680786,0.5100102424621582,-0.8453546762466431,0.002588576404377818,0.022260107100009918,0.014186415821313858
2024-06-15 20:28:51.341845,-30.9421605440322,7.663693376128686,-0.20916643248200112,0.12709319591522217,0.5133684873580933,-0.8479338884353638,0.0037999337073415518,0.017538532614707947,0.014579646289348602
2024-06-15 20:28:51.365681,-30.938284411678218,7.701144157121512,-0.20843892395390218,0.13014361262321472,0.5126553177833557,-0.8502920269966125,0.003737563965842128,0.027301935479044914,0.019330190494656563
2024-06-15 20:28:51.375626,-30.935009335971195,7.7375704097388365,-0.20248010417138176,0.14781390130519867,0.5124517679214478,-0.8474234938621521,0.004876560997217894,0.018407387658953667,0.016848906874656677
2024-06-15 20:28:51.386957,-30.93069948660492,7.7587900999427735,-0.20034314875545367,0.12860442698001862,0.5120562314987183,-0.8491782546043396,0.004524284042418003,0.019942522048950195,0.013112867251038551
2024-06-15 20:28:51.426109,-30.925566599443652,7.795517734657224,-0.20231883433373277,0.13584959506988525,0.5103390216827393,-0.8527019619941711,0.0036739318165928125,0.026500826701521873,0.0169549398124218
2024-06-15 20:28:51.434430,-30.922079787872363,7.828687694587745,-0.19188933557432164,0.14265117049217224,0.5121148228645325,-0.8466659784317017,0.003729049349203706,0.01863986998796463,0.020529650151729584
2024-06-15 20:28:51.461980,-30.91807388192415,7.857769786300013,-0.19187016568792065,0.13808053731918335,0.512024998664856,-0.8478946089744568,0.0035462535452097654,0.022374335676431656,0.013883103616535664
2024-06-15 20:28:51.481457,-30.916431221428763,7.889613835757905,-0.19463237689759577,0.14349406957626343,0.5143124461174011,-0.8487329483032227,0.0026660896837711334,0.020823482424020767,0.01220045518130064
2024-06-15 20:28:51.503937,-30.911824258833587,7.914077012043952,-0.18554506367094503,0.13276346027851105,0.5097519159317017,-0.8495288491249084,0.003478520317003131,0.018003929406404495,0.01762443780899048
2024-06-15 20:28:51.521351,-30.90849795670779,7.948909269263725,-0.18236991950117504,0.14152419567108154,0.5094757676124573,-0.8496019840240479,0.0025028984528034925,0.022586757317185402,0.017506184056401253
2024-06-15 20:28:51.543207,-30.906684541483152,7.977072700532625,-0.1841655122009479,0.14540112018585205,0.5122485756874084,-0.8460018038749695,0.004678672645241022,0.018897907808423042,0.011583487503230572
2024-06-15 20:28:51.563883,-30.903590465789136,7.998370937912018,-0.18055196860404094,0.12796342372894287,0.5161125659942627,-0.8458839058876038,0.005190871190279722,0.020244823768734932,0.015714872628450394
2024-06-15 20:28:51.581434,-30.89732376722565,8.038867129501023,-0.1700145341794451,0.14326803386211395,0.5144082307815552,-0.8475525975227356,0.0044734785333275795,0.0224024448543787,0.023639962077140808
2024-06-15 20:28:51.605841,-30.8905243139069,8.069964980792092,-0.1623660830107795,0.14816097915172577,0.5105018615722656,-0.8459708094596863,0.005630479194223881,0.01726117543876171,0.018028534948825836
2024-06-15 20:28:51.623833,-30.883728275682742,8.093633293813479,-0.16840248947340308,0.13543514907360077,0.5111216902732849,-0.8516853451728821,0.005616182927042246,0.022956274449825287,0.01065193023532629
2024-06-15 20:28:51.641971,-30.87805921867163,8.130331900223958,-0.161614215253336,0.14105536043643951,0.5123263001441956,-0.8486338257789612,0.005952117964625359,0.023248882964253426,0.02120712399482727
2024-06-15 20:28:51.656831,-30.871099255907385,8.164312945118416,-0.15018318664601885,0.15047980844974518,0.5113549828529358,-0.8471499085426331,0.005836205556988716,0.01777803897857666,0.01996036246418953
2024-06-15 20:28:51.683858,-30.86587074609774,8.192213414104273,-0.15495442062681655,0.14709852635860443,0.5103495717048645,-0.8497737050056458,0.004858332220464945,0.021041788160800934,0.011086869984865189
2024-06-15 20:28:51.701199,-30.862435160945225,8.220999246361291,-0.15369667864375572,0.1404448002576828,0.5133093595504761,-0.8474990129470825,0.003878643736243248,0.021291038021445274,0.01563505083322525
2024-06-15 20:28:51.718126,-30.853859858442274,8.256334376258707,-0.1422786033834778,0.14780743420124054,0.5075575709342957,-0.850749135017395,0.005115249194204807,0.01980346068739891,0.021872667595744133
2024-06-15 20:28:51.743978,-30.8497549147511,8.289290039004017,-0.1463527445223243,0.15143877267837524,0.5087032318115234,-0.8498746752738953,0.0048104701563715935,0.023091742768883705,0.011941511183977127
2024-06-15 20:28:51.761317,-30.84692721643471,8.313308399220368,-0.14982592239570222,0.13942907750606537,0.5096196532249451,-0.8504295349121094,0.003579268930479884,0.021114123985171318,0.011904138140380383
2024-06-15 20:28:51.785903,-30.840803951843796,8.346089892141844,-0.139971586929387,0.14158599078655243,0.5091795325279236,-0.8492991924285889,0.005304676480591297,0.02096373215317726,0.02091512456536293
2024-06-15 20:28:51.803180,-30.836699008152618,8.382808989119832,-0.13359227028587442,0.15858812630176544,0.5075526833534241,-0.8442126512527466,0.0044282167218625546,0.01927020028233528,0.01662743277847767
2024-06-15 20:28:51.813732,-30.83276481919069,8.407448896550653,-0.13916056866651408,0.1507713347673416,0.5108881592750549,-0.8454154133796692,0.0052919043228030205,0.01986268348991871,0.008917060680687428
2024-06-15 20:28:51.851981,-30.826791818761514,8.434197624887716,-0.13732752998822514,0.1399492621421814,0.5127825140953064,-0.8488107919692993,0.006700057070702314,0.021768389269709587,0.015932636335492134
2024-06-15 20:28:51.864000,-30.81834970494738,8.469735952912938,-0.12514027137374065,0.15233522653579712,0.5078176259994507,-0.8481152653694153,0.005095823667943478,0.01940212957561016,0.021497005596756935
2024-06-15 20:28:51.874485,-30.81226742149148,8.500034672071115,-0.12786094115944036,0.157009556889534,0.5066250562667847,-0.8506448268890381,0.0052007045596838,0.019984455779194832,0.011074610985815525
2024-06-15 20:28:51.905496,-30.81088089308997,8.522758711439748,-0.1330063281004946,0.1437225639820099,0.5120218396186829,-0.8464195132255554,0.005605223588645458,0.0205317921936512,0.010731328278779984
2024-06-15 20:28:51.918611,-30.802343156627455,8.556327383663067,-0.1261642928211401,0.14909863471984863,0.5079973936080933,-0.8505171537399292,0.006006722804158926,0.020477822050452232,0.019198467954993248
2024-06-15 20:28:51.942156,-30.795926193902226,8.587968234993152,-0.12288836334047273,0.15920530259609222,0.5059708952903748,-0.8504518270492554,0.005434070713818073,0.01948901079595089,0.014060447923839092
2024-06-15 20:28:51.965144,-30.791377287914997,8.61094157626649,-0.12651083154002568,0.1514909863471985,0.50710129737854,-0.8484593629837036,0.004884024150669575,0.01858951523900032,0.009007816202938557
2024-06-15 20:28:51.980841,-30.786094136591995,8.635286078015707,-0.12761657513362729,0.14566603302955627,0.5090335011482239,-0.8529422283172607,0.0050483341328799725,0.02069656364619732,0.013751271180808544
2024-06-15 20:28:52.001193,-30.78372406095,8.667654344492398,-0.11976503255885962,0.14792746305465698,0.5129168033599854,-0.8438249230384827,0.004330335650593042,0.021699123084545135,0.01899007521569729
2024-06-15 20:28:52.025981,-30.776975834050027,8.700456327981383,-0.11542546119752144,0.1591951698064804,0.5070386528968811,-0.848002552986145,0.0032904751133173704,0.019020292907953262,0.01622682437300682
2024-06-15 20:28:52.043596,-30.773147513020234,8.7237079994634,-0.11803532717219356,0.15228502452373505,0.5071491599082947,-0.851060688495636,0.004178132861852646,0.018237339332699776,0.01166087668389082
2024-06-15 20:28:52.067902,-30.768646418357196,8.752936940242822,-0.1090595181177646,0.1501394361257553,0.507936954498291,-0.8477960228919983,0.003989257849752903,0.018283966928720474,0.018222246319055557
2024-06-15 20:28:52.085424,-30.762448021685408,8.78657220681055,-0.10584463345280423,0.16341499984264374,0.5050226449966431,-0.8469130396842957,0.004538848530501127,0.018604278564453125,0.015006056986749172
2024-06-15 20:28:52.095354,-30.759852549800804,8.808614081035827,-0.11218496332317351,0.15253981947898865,0.5099959969520569,-0.8498004674911499,0.006007036194205284,0.01983618550002575,0.008023886941373348
2024-06-15 20:28:52.121861,-30.756724323160938,8.833629648871,-0.10803983890976913,0.1428958624601364,0.5122323036193848,-0.8478376269340515,0.004465316887944937,0.020746814087033272,0.016468595713377
2024-06-15 20:28:52.145932,-30.750580568002512,8.870458882649356,-0.09842468012632336,0.16017086803913116,0.5087307095527649,-0.848300576210022,0.0044735088013112545,0.01975437067449093,0.020326603204011917
2024-06-15 20:28:52.154565,-30.746707850743114,8.896827681713836,-0.09725382295198186,0.1615702360868454,0.5080381631851196,-0.8477969765663147,0.004071976523846388,0.01744270883500576,0.012296117842197418
2024-06-15 20:28:52.180949,-30.744983227977688,8.922351244868526,-0.10190458813727213,0.15293410420417786,0.5099703669548035,-0.8453516364097595,0.004080486949533224,0.02070021629333496,0.011370265856385231
2024-06-15 20:28:52.200543,-30.73780469916,8.95426786508635,-0.09294350667824101,0.16064229607582092,0.5063225030899048,-0.8504114747047424,0.0042038955725729465,0.017808837816119194,0.018440447747707367
2024-06-15 20:28:52.223811,-30.735004321600297,8.979449065008895,-0.09258996434741351,0.15976138412952423,0.5049227476119995,-0.8490403294563293,0.0035116325598210096,0.018356705084443092,0.011314967647194862
2024-06-15 20:28:52.241703,-30.73249422708032,9.002883444051209,-0.09633780387083322,0.15762677788734436,0.505460798740387,-0.84739750623703,0.0034690871834754944,0.017497651278972626,0.009348545223474503
2024-06-15 20:28:52.262427,-30.72656903797533,9.026164997610843,-0.08815755177215209,0.15761958062648773,0.5073438882827759,-0.8498644828796387,0.005241201259195805,0.014709364622831345,0.01587519608438015
2024-06-15 20:28:52.283696,-30.723485207565073,9.055410160089545,-0.08610404606003849,0.15986038744449615,0.5065084099769592,-0.8461613059043884,0.0038204784505069256,0.019665472209453583,0.013046889565885067
2024-06-15 20:28:52.301182,-30.71984813183204,9.081002025135936,-0.0876744959812522,0.16240368783473969,0.5074282288551331,-0.8469919562339783,0.004023178014904261,0.016292141750454903,0.01187046617269516
2024-06-15 20:28:52.324539,-30.713175037012938,9.101251828477732,-0.08111770114102507,0.15295571088790894,0.5067731738090515,-0.8511794209480286,0.003522690152749419,0.015548218972980976,0.015731530264019966
2024-06-15 20:28:52.343843,-30.709496980144884,9.13278937319662,-0.08038861846776588,0.16104073822498322,0.507742166519165,-0.8448200821876526,0.004205529578030109,0.02027628943324089,0.01294759102165699
2024-06-15 20:28:52.361687,-30.704886602455126,9.159755813813476,-0.0815400189411221,0.16481207311153412,0.5079734325408936,-0.8464143872261047,0.004587345756590366,0.017203345894813538,0.011869537644088268
2024-06-15 20:28:52.377277,-30.698438903878635,9.182583159793305,-0.07850649447492407,0.15766920149326324,0.507188618183136,-0.8507728576660156,0.005499624647200108,0.017961258068680763,0.01492498628795147
2024-06-15 20:28:52.403723,-30.694470563970857,9.214400742268163,-0.07677946380100915,0.1671948879957199,0.5066715478897095,-0.8467825651168823,0.005105234682559967,0.019368745386600494,0.01373274251818657
2024-06-15 20:28:52.421191,-30.688965431499827,9.233415135143833,-0.07401866665393562,0.1640813648700714,0.5055094361305237,-0.8490000367164612,0.00464977603405714,0.012928416952490807,0.011130734346807003
2024-06-15 20:28:52.436806,-30.683713016028086,9.254859367816733,-0.07605070796297392,0.15340524911880493,0.5060654878616333,-0.8489962220191956,0.004526285454630852,0.019813720136880875,0.010918361134827137
2024-06-15 20:28:52.463976,-30.681025336589688,9.287404365438197,-0.07260112892678691,0.16685707867145538,0.5088813900947571,-0.8452940583229065,0.004354480654001236,0.018129194155335426,0.014653928577899933
2024-06-15 20:28:52.481677,-30.674618619148216,9.309073140580063,-0.06493241397423609,0.1642330437898636,0.5057507753372192,-0.8478957414627075,0.00450534513220191,0.014080100692808628,0.01476135104894638
2024-06-15 20:28:52.505921,-30.6710464302123,9.334869911301556,-0.07007458592390366,0.16665366291999817,0.5041835308074951,-0.850033700466156,0.0038680254947394133,0.018696175888180733,0.009287970140576363
2024-06-15 20:28:52.523869,-30.66885735458331,9.35811731391534,-0.06539682681715729,0.16666856408119202,0.507001519203186,-0.8456240296363831,0.0035076295025646687,0.014295459724962711,0.012930592522025108
2024-06-15 20:28:52.534467,-30.66322927870722,9.379391645632637,-0.061649000633950804,0.16129203140735626,0.5037196278572083,-0.8483267426490784,0.0033360535744577646,0.01611778326332569,0.012685338966548443
2024-06-15 20:28:52.565625,-30.66254625979022,9.406067803209769,-0.06740068025565606,0.16728657484054565,0.5065640807151794,-0.8443807363510132,0.0036432601045817137,0.018061049282550812,0.008448702283203602
2024-06-15 20:28:52.583428,-30.656832806549502,9.423474540309545,-0.0622185143467469,0.1600365787744522,0.5075743198394775,-0.8473053574562073,0.004790060222148895,0.012439468875527382,0.012142623774707317
2024-06-15 20:28:52.594833,-30.6503646174055,9.44917739592995,-0.05692585145171426,0.16221347451210022,0.5030920505523682,-0.8490419387817383,0.0038138669915497303,0.01670250855386257,0.014653866179287434
2024-06-15 20:28:52.625658,-30.645593730270246,9.477970058376139,-0.05464625914095598,0.17716628313064575,0.5039012432098389,-0.8464157581329346,0.005139583256095648,0.014058390632271767,0.012235423550009727
2024-06-15 20:28:52.643930,-30.639501201530596,9.49221014902197,-0.051800208026229595,0.1621963381767273,0.5049773454666138,-0.8503906726837158,0.004437183495610952,0.012868491001427174,0.010059654712677002
2024-06-15 20:28:52.654967,-30.638538144857623,9.516844080037266,-0.05358241382203352,0.15981918573379517,0.5093008875846863,-0.845628559589386,0.004290957003831863,0.020070595666766167,0.011480269022285938
2024-06-15 20:28:52.685975,-30.63222021987536,9.543100180980442,-0.042962553554988035,0.17228242754936218,0.5064985752105713,-0.8457679152488708,0.004149159882217646,0.01213054545223713,0.017056593671441078
2024-06-15 20:28:52.700295,-30.62627795529745,9.562564512567686,-0.041447875730205065,0.1669500768184662,0.5043478608131409,-0.8510749936103821,0.003356670029461384,0.015014799311757088,0.01144853699952364
2024-06-15 20:28:52.721964,-30.62634625718915,9.589252622975865,-0.0472603000128198,0.17189274728298187,0.5068051815032959,-0.8441498875617981,0.0028291710186749697,0.018329240381717682,0.008831794373691082
2024-06-15 20:28:52.752036,-30.61818759622557,9.609634761232828,-0.039185492294504035,0.17087067663669586,0.5042500495910645,-0.8496198058128357,0.006004674360156059,0.010767840780317783,0.013603894039988518
2024-06-15 20:28:52.762326,-30.614144124236923,9.629436333410341,-0.04092405224769665,0.16666239500045776,0.5025570392608643,-0.8546140193939209,0.0029975050128996372,0.0162094384431839,0.008781207725405693
2024-06-15 20:28:52.781854,-30.617227954647184,9.651173410443908,-0.043586218528308296,0.16876892745494843,0.5075749158859253,-0.8430672287940979,0.0023304568603634834,0.015157723799347878,0.00870063528418541
2024-06-15 20:28:52.805937,-30.61076659569235,9.67011181746506,-0.03543895677692684,0.16456818580627441,0.5051713585853577,-0.8482612371444702,0.004012611694633961,0.013016201555728912,0.01574060320854187
2024-06-15 20:28:52.815616,-30.608498972887908,9.698817394999331,-0.03851911195844475,0.17065571248531342,0.504500687122345,-0.8482454419136047,0.003369074547663331,0.02067035436630249,0.01102742925286293
2024-06-15 20:28:52.841779,-30.60521365189713,9.72561478843423,-0.03783965821342724,0.18022702634334564,0.502810537815094,-0.844552755355835,0.003364376723766327,0.014721223153173923,0.01092719566076994
2024-06-15 20:28:52.865990,-30.600647670436977,9.741098827282649,-0.03331100933997739,0.16748511791229248,0.5042285919189453,-0.8470329642295837,0.00478468369692564,0.013287663459777832,0.010758276097476482
2024-06-15 20:28:52.875408,-30.598335651402927,9.76662495175828,-0.0347205462742458,0.1735779494047165,0.5042230486869812,-0.8437699675559998,0.00388829642906785,0.01639963872730732,0.009989811107516289
2024-06-15 20:28:52.887789,-30.593359858592574,9.783097660489057,-0.030492559126408733,0.17045079171657562,0.5054087042808533,-0.8461751937866211,0.004999726545065641,0.010341037064790726,0.01121352519840002
2024-06-15 20:28:52.925676,-30.58645453734169,9.801433303315957,-0.025830278002053977,0.16449210047721863,0.5016173124313354,-0.851383626461029,0.004888365510851145,0.014243748039007187,0.012064790353178978
2024-06-15 20:28:52.934765,-30.58227787666423,9.83100375355388,-0.024757718188843803,0.17961029708385468,0.5016928315162659,-0.8485763072967529,0.004287499003112316,0.01685171201825142,0.011514058336615562
2024-06-15 20:28:52.983130,-30.577698234825736,9.848554778399874,-0.021359318880685613,0.1739034503698349,0.5035468935966492,-0.8478423357009888,0.004858225584030151,0.01246540155261755,0.01065092720091343
2024-06-15 20:28:52.988650,-30.57315274393309,9.89717121113838,-0.01931409243840335,0.1791178286075592,0.507631242275238,-0.8443908095359802,0.004917497746646404,0.014098890125751495,0.011979354545474052
2024-06-15 20:28:53.021521,-30.56735391332775,9.910478980962502,-0.01659297075298072,0.16800761222839355,0.5020086765289307,-0.8513239026069641,0.0032792084384709597,0.013003543019294739,0.009626365266740322
2024-06-15 20:28:53.043168,-30.56787983789384,9.935355383693336,-0.018992906794747466,0.1701400876045227,0.5048507452011108,-0.8459744453430176,0.0029590188059955835,0.01874343678355217,0.010983712039887905
2024-06-15 20:28:53.063642,-30.562975762069772,9.960124210944741,-0.012352965740556677,0.18170572817325592,0.5036932229995728,-0.8452908992767334,0.0037013618275523186,0.011766950599849224,0.012659200467169285
2024-06-15 20:28:53.081406,-30.559506025971405,9.97741654237592,-0.013067307478204808,0.1754297912120819,0.5028324127197266,-0.8489664196968079,0.0027377784717828035,0.01420009694993496,0.008371802978217602
2024-06-15 20:28:53.105910,-30.557262308829056,10.001497228068446,-0.01611318164679373,0.1784239113330841,0.5023882389068604,-0.8457136154174805,0.004757883492857218,0.015803849324584007,0.009697864763438702
2024-06-15 20:28:53.123744,-30.55465317656611,10.01745169619595,-0.007742776481309841,0.172603040933609,0.5049479007720947,-0.844565212726593,0.003616244997829199,0.009983006864786148,0.011963262222707272
2024-06-15 20:28:53.141952,-30.550319421537736,10.036937372124349,-0.009049363655085511,0.17268258333206177,0.5017334818840027,-0.8494560718536377,0.0031744937878102064,0.01438950840383768,0.009119688533246517
2024-06-15 20:28:53.156842,-30.547361949627124,10.058691524630841,-0.00690677741853248,0.17896011471748352,0.5052520632743835,-0.8438472151756287,0.004323621746152639,0.012612761929631233,0.011491223238408566
2024-06-15 20:28:53.183817,-30.542915496477445,10.075363162621196,-0.001416383173382454,0.17408275604248047,0.5040915608406067,-0.8473809957504272,0.003911352250725031,0.011664602905511856,0.012146401219069958
2024-06-15 20:28:53.201159,-30.538602232016583,10.100001362504724,-0.002284361228544561,0.1821984499692917,0.5004546046257019,-0.8472427129745483,0.0034899527672678232,0.014688536524772644,0.01016462966799736
2024-06-15 20:28:53.216161,-30.53409772225896,10.114598330534687,6.118665969289575e-05,0.17927125096321106,0.5032053589820862,-0.845851480960846,0.005123963579535484,0.00988904107362032,0.00833655335009098
2024-06-15 20:28:53.243971,-30.53035477859379,10.127847189977219,0.0031306910358178987,0.16879582405090332,0.5031302571296692,-0.8492192029953003,0.002409740351140499,0.01200917363166809,0.010130343027412891
2024-06-15 20:28:53.261866,-30.52730509912938,10.152171201158927,0.005172185345010285,0.17731083929538727,0.5028846859931946,-0.8468679785728455,0.0025345743633806705,0.014671092852950096,0.012293009087443352
2024-06-15 20:28:53.286282,-30.522663985588355,10.170227660003503,0.010947891107611256,0.17981518805027008,0.5027897357940674,-0.8477819561958313,0.002946284366771579,0.010142973624169827,0.011940923519432545
2024-06-15 20:28:53.296376,-30.519993381622882,10.188512076411627,0.011535871010560845,0.1767464131116867,0.5008373856544495,-0.8475573658943176,0.001716563943773508,0.013149960897862911,0.00989527441561222
2024-06-15 20:28:53.321204,-30.517288626711558,10.211919988470907,0.014796706039966747,0.18805842101573944,0.5012525916099548,-0.8489262461662292,0.0027455005329102278,0.010945151560008526,0.010851798579096794
2024-06-15 20:28:53.344250,-30.51552643790569,10.22541900359179,0.018006991666418604,0.17677713930606842,0.5025429725646973,-0.8456509709358215,0.002716336864978075,0.011021418496966362,0.008606058545410633
2024-06-15 20:28:53.355808,-30.51367545664062,10.245087387080488,0.015371874335642603,0.17706894874572754,0.5023757815361023,-0.847202718257904,0.0033297324553132057,0.014479193836450577,0.008486397564411163
2024-06-15 20:28:53.382004,-30.50995300354296,10.263364119525797,0.02060695586782619,0.17931349575519562,0.5040470361709595,-0.8459432721138,0.003636747831478715,0.011685047298669815,0.011090603657066822
2024-06-15 20:28:53.397006,-30.508006399629508,10.2815392529072,0.02222001276254647,0.17946332693099976,0.5020872950553894,-0.8473266363143921,0.001536747207865119,0.012942545115947723,0.009507673792541027
2024-06-15 20:28:53.423638,-30.506449116498747,10.303155094082998,0.021703794869101643,0.18548287451267242,0.5013937950134277,-0.8457081317901611,0.0018122750334441662,0.012604454532265663,0.009446966461837292
2024-06-15 20:28:53.441026,-30.50253541810433,10.318500821600724,0.028816708180522635,0.18265371024608612,0.500801682472229,-0.8460432291030884,0.002232183935120702,0.008205722086131573,0.011125301010906696
2024-06-15 20:28:53.451840,-30.499577946193714,10.335291987901554,0.02879834871207492,0.18086105585098267,0.49973154067993164,-0.8483606576919556,0.0030199084430933,0.01230425015091896,0.007923880591988564
2024-06-15 20:28:53.483747,-30.497323983767608,10.352224880627663,0.029812651814141646,0.18278120458126068,0.5013529658317566,-0.8457359671592712,0.003179964143782854,0.010167688131332397,0.008062919601798058
2024-06-15 20:28:53.499490,-30.49457483262668,10.364986235318185,0.03381276477476217,0.17641398310661316,0.5038560032844543,-0.8458845615386963,0.0036815726198256016,0.01025436446070671,0.009685792028903961
2024-06-15 20:28:53.512364,-30.49111875690665,10.388638326640292,0.034930721333569136,0.18567214906215668,0.5016615986824036,-0.8464195132255554,0.0032739476300776005,0.01405402272939682,0.010195768438279629
2024-06-15 20:28:53.543972,-30.486897699999584,10.405848695801433,0.036024115224779836,0.18917320668697357,0.501515805721283,-0.8471521139144897,0.004857796709984541,0.009293346665799618,0.0066901943646371365
2024-06-15 20:28:53.559173,-30.484694963992254,10.41365047938088,0.035019273668941295,0.17611649632453918,0.5030792951583862,-0.8475032448768616,0.0026758296880871058,0.008878410793840885,0.004823563154786825
2024-06-15 20:28:53.585972,-30.48080175616535,10.430422008887845,0.03826685519651046,0.17927981913089752,0.5008082389831543,-0.8498014807701111,0.0028969275299459696,0.0113683445379138,0.009897839277982712
2024-06-15 20:28:53.603835,-30.478568284306753,10.448299175266708,0.04415420478669039,0.18370455503463745,0.5020816326141357,-0.8449545502662659,0.003161677159368992,0.010261325165629387,0.010601658374071121
2024-06-15 20:28:53.607081,-30.47500634065459,10.467409190790757,0.041549401422936276,0.1856381744146347,0.5018057227134705,-0.8475151658058167,0.003484895918518305,0.013006948865950108,0.007459195796400309
2024-06-15 20:28:53.651980,-30.472772868796,10.482742965477437,0.044286416304887076,0.18514683842658997,0.5021286010742188,-0.8460944890975952,0.0032728854566812515,0.009815658442676067,0.010115359909832478
2024-06-15 20:28:53.656392,-30.46909139683336,10.499522178947219,0.05198107797215601,0.18559937179088593,0.5004921555519104,-0.845139741897583,0.002687557600438595,0.008751869201660156,0.01148332841694355
2024-06-15 20:28:53.668181,-30.467441906148803,10.514102071504258,0.04790766053987685,0.18507079780101776,0.5006181001663208,-0.845920205116272,0.0022881045006215572,0.011264828965067863,0.004738892428576946
2024-06-15 20:28:53.705581,-30.4652562456144,10.526879647894058,0.04731010569888668,0.18243317306041718,0.5018815398216248,-0.8456344604492188,0.0030676608439534903,0.00920118112117052,0.006926167756319046
2024-06-15 20:28:53.715690,-30.462117773690778,10.54314659717609,0.054343112800630464,0.18306533992290497,0.5018348693847656,-0.8472799062728882,0.003704457776620984,0.009736101143062115,0.01167319156229496
2024-06-15 20:28:53.741970,-30.46058439622211,10.563088188231589,0.054849667377122116,0.19440297782421112,0.500535786151886,-0.8452941179275513,0.0025297740940004587,0.009794038720428944,0.007510979659855366
2024-06-15 20:28:53.762431,-30.458350924363515,10.573062825740745,0.05292352068064546,0.1880795955657959,0.500366747379303,-0.8481878042221069,0.0028456354048103094,0.006721707060933113,0.00413399888202548
2024-06-15 20:28:53.783917,-30.456315527990853,10.582532029251322,0.05523728061252034,0.17900878190994263,0.5012254118919373,-0.8469792604446411,0.002593316836282611,0.009048513136804104,0.0058187684044241905
2024-06-15 20:28:53.801283,-30.455758867573497,10.599514440848912,0.05686941567967571,0.18570266664028168,0.5044808387756348,-0.8451865315437317,0.0020066869910806417,0.010874752886593342,0.008127096109092236
2024-06-15 20:28:53.824624,-30.453754207052096,10.61193770117552,0.05709834707879014,0.1847469061613083,0.5023771524429321,-0.8431259393692017,0.0023121072445064783,0.009073324501514435,0.004787697456777096
2024-06-15 20:28:53.843874,-30.449639018077164,10.626028381433256,0.060373769631355045,0.18302713334560394,0.5024991631507874,-0.8467284440994263,0.002580388681963086,0.009565750136971474,0.010179435834288597
2024-06-15 20:28:53.867672,-30.445062791333257,10.645199868659835,0.06393932848130005,0.19243861734867096,0.4983938932418823,-0.8463703989982605,0.0030669670086354017,0.009031616151332855,0.01022355817258358
2024-06-15 20:28:53.877371,-30.442064338287622,10.656870954404095,0.06329396231611978,0.18718859553337097,0.4990793466567993,-0.8469597697257996,0.0034244395792484283,0.008573085069656372,0.00555041991174221
2024-06-15 20:28:53.904003,-30.440872470277455,10.668821224130678,0.061346504629019895,0.18218646943569183,0.5017086863517761,-0.8479150533676147,0.002592240460216999,0.010826400481164455,0.00685049407184124
2024-06-15 20:28:53.921178,-30.43880975314811,10.685466395137999,0.0680128693105515,0.18776489794254303,0.5028939247131348,-0.8408632278442383,0.003158914390951395,0.008470036089420319,0.010061228647828102
2024-06-15 20:28:53.937110,-30.432884564043125,10.697781226211532,0.06910826756879891,0.18945378065109253,0.49941733479499817,-0.8476759791374207,0.004337973427027464,0.007193827535957098,0.006726131774485111
2024-06-15 20:28:53.963969,-30.428800110919457,10.710090934643189,0.07084557687700191,0.18583466112613678,0.4980528950691223,-0.8481267690658569,0.003111968981102109,0.008107909001410007,0.007487379014492035
2024-06-15 20:28:53.981425,-30.424889827619623,10.727218487760641,0.07472886625537811,0.1908179670572281,0.497499018907547,-0.8475948572158813,0.0027701822109520435,0.008384963497519493,0.00975780375301838
2024-06-15 20:28:54.006102,-30.42169329908806,10.736503276163628,0.07762634722713123,0.19014552235603333,0.49913617968559265,-0.8495233058929443,0.0029709539376199245,0.004507612437009811,0.005833514966070652
2024-06-15 20:28:54.023064,-30.420798544306788,10.74638314479805,0.07715060854318398,0.1834004670381546,0.5009012222290039,-0.8445196151733398,0.003299254924058914,0.007862224243581295,0.006056978367269039
2024-06-15 20:28:54.033644,-30.41692582704739,10.760372225991883,0.0839619546620197,0.18910957872867584,0.5011247992515564,-0.8455671668052673,0.003546477295458317,0.006611369084566832,0.01032029464840889
2024-06-15 20:28:54.065726,-30.413182883382223,10.775898953522615,0.08665400302025014,0.19191999733448029,0.5014421939849854,-0.8448423743247986,0.004941986408084631,0.008790492080152035,0.007207262329757214
2024-06-15 20:28:54.083427,-30.411051864361177,10.789259657312806,0.08334694415202765,0.19267523288726807,0.5007724761962891,-0.8453894257545471,0.0020971326157450676,0.008751549758017063,0.004445288795977831
2024-06-15 20:28:54.093784,-30.408541769841197,10.799439200497064,0.0848619588171945,0.18884922564029694,0.5012794733047485,-0.8468562960624695,0.0031828072387725115,0.0075182123109698296,0.0073723942041397095
2024-06-15 20:28:54.124846,-30.407189392385536,10.812030654231982,0.08673974057063231,0.18608258664608002,0.4990566372871399,-0.8454743027687073,0.0015336694195866585,0.008566176518797874,0.0066780513152480125
2024-06-15 20:28:54.143935,-30.404542694082156,10.826796669443903,0.0863266075073391,0.19279497861862183,0.4980299472808838,-0.8488559126853943,0.002282466972246766,0.008023464120924473,0.006513775791972876
2024-06-15 20:28:54.154741,-30.403029807181,10.837273325857057,0.08716243189669957,0.18870632350444794,0.49779146909713745,-0.8451006412506104,0.002979111857712269,0.008703075349330902,0.00502401776611805
2024-06-15 20:28:54.185968,-30.402647316587476,10.851674779722028,0.087265498384058,0.19074058532714844,0.5018967986106873,-0.844890296459198,0.0019651951733976603,0.008926576003432274,0.00562838651239872
2024-06-15 20:28:54.200241,-30.399201486151206,10.86365493152623,0.08623636763499427,0.19261251389980316,0.4994727671146393,-0.8457239866256714,0.00353533448651433,0.008212437853217125,0.005324223544448614
2024-06-15 20:28:54.221791,-30.39647624067237,10.873809715274747,0.08908836514976466,0.1897653341293335,0.4997293949127197,-0.8471333980560303,0.002971347188577056,0.0075589497573673725,0.0062742517329752445
2024-06-15 20:28:54.245984,-30.39504190094667,10.884836201916087,0.08618719560905547,0.1913057118654251,0.4986543357372284,-0.8458868861198425,0.002813750645145774,0.008313757367432117,0.00445823697373271
2024-06-15 20:28:54.262216,-30.394276919759626,10.894319065805004,0.08791508672672324,0.19036953151226044,0.5000448226928711,-0.845099151134491,0.0014755387092009187,0.00632081413641572,0.00524119334295392
2024-06-15 20:28:54.266399,-30.389922674163742,10.903131717381612,0.08949731605621257,0.18898271024227142,0.49631261825561523,-0.8497732281684875,0.0035315181594341993,0.007232391741126776,0.005124787334352732
2024-06-15 20:28:54.305155,-30.3902061270143,10.914244435161223,0.09093657832059442,0.19036723673343658,0.5005376935005188,-0.8440409898757935,0.0033383341506123543,0.0070231640711426735,0.005684813018888235
2024-06-15 20:28:54.314010,-30.386364145606166,10.923748643391296,0.09427155158498536,0.19034820795059204,0.49894168972969055,-0.8466228246688843,0.0026916670612990856,0.00493021821603179,0.00628708116710186
2024-06-15 20:28:54.341875,-30.386377805984505,10.93336640351632,0.09333437492566557,0.19358253479003906,0.5010142922401428,-0.8457157015800476,0.0027045782189816236,0.007447974290698767,0.004554847255349159
2024-06-15 20:28:54.365684,-30.384376560557694,10.944101753344288,0.09748392161975326,0.19123750925064087,0.5010651350021362,-0.8426340818405151,0.002349967136979103,0.005381058901548386,0.007509147748351097
2024-06-15 20:28:54.375389,-30.3816410697951,10.953740004036822,0.09896978791902855,0.196604922413826,0.49851086735725403,-0.8473513722419739,0.0017879465594887733,0.004925596062093973,0.00488470820710063
2024-06-15 20:28:54.387101,-30.380896579175573,10.960747778125254,0.09548514413238572,0.19111086428165436,0.49873343110084534,-0.8455346822738647,0.002176614012569189,0.00601993640884757,0.002359173260629177
2024-06-15 20:28:54.425909,-30.378062050670017,10.96729707576565,0.10013445523443473,0.19002807140350342,0.5008482933044434,-0.844969630241394,0.002878091298043728,0.0035749885719269514,0.006634711287915707
2024-06-15 20:28:54.435074,-30.373642918277017,10.978830703952863,0.10118256243680773,0.1935330480337143,0.4977208077907562,-0.850418746471405,0.002554764272645116,0.007576054893434048,0.005852299276739359
2024-06-15 20:28:54.461967,-30.3752411825428,10.989887926445467,0.09933355552329123,0.19729934632778168,0.49984902143478394,-0.843384325504303,0.0014876265777274966,0.006821289658546448,0.0022343227174133062
2024-06-15 20:28:54.481543,-30.37372488054706,10.99573883724323,0.10033710641350048,0.1915808916091919,0.4994894564151764,-0.8449618816375732,0.0017029537120833993,0.0048723481595516205,0.003929360304027796
2024-06-15 20:28:54.488574,-30.37151531435056,11.004231323702495,0.10021322252340804,0.19353263080120087,0.500120997428894,-0.8450639843940735,0.0027675912715494633,0.00514819473028183,0.0033276285976171494
2024-06-15 20:28:54.522072,-30.370060484057348,11.013186555478027,0.10034930603849262,0.19404950737953186,0.4986889660358429,-0.8454443216323853,0.0019602165557444096,0.004862464964389801,0.004033983685076237
2024-06-15 20:28:54.543177,-30.368994974546826,11.017230881240321,0.10114865828490228,0.190073162317276,0.4982726275920868,-0.8474525809288025,0.0014472368638962507,0.0029920164961367846,0.003997763618826866
2024-06-15 20:28:54.563891,-30.36929208777572,11.027097943270052,0.10196554624159317,0.19244953989982605,0.4994647204875946,-0.8464879989624023,0.0016561164520680904,0.006221399176865816,0.0042031933553516865
2024-06-15 20:28:54.581426,-30.368014842400928,11.035359057071181,0.10237407026121795,0.19643618166446686,0.4994700253009796,-0.8464451432228088,0.0022524292580783367,0.0034295187797397375,0.0032269523944705725
2024-06-15 20:28:54.605691,-30.36832220091358,11.039453755478604,0.1025406695140494,0.1906309276819229,0.5002462863922119,-0.8445776104927063,0.0009621152421459556,0.003897667396813631,0.0036586159840226173
2024-06-15 20:28:54.623967,-30.368257314116462,11.047676449465653,0.10388985865875171,0.1945084184408188,0.5010944604873657,-0.8445074558258057,0.00025268486933782697,0.0038960869424045086,0.004394682124257088
2024-06-15 20:28:54.637206,-30.364876370477308,11.054440044291258,0.10690429327982807,0.19580771028995514,0.49648672342300415,-0.8465919494628906,0.002411792753264308,0.003042984288185835,0.0052040512673556805
2024-06-15 20:28:54.665281,-30.365385219570474,11.060724672101315,0.10508809662073276,0.19304779171943665,0.4984203279018402,-0.8448664546012878,0.001986225601285696,0.005035241600126028,0.0024931731168180704
2024-06-15 20:28:54.683942,-30.364951502558178,11.068278007549704,0.10371520191713375,0.19507543742656708,0.49869170784950256,-0.8469679951667786,0.0011501071276143193,0.003642560914158821,0.003502679755911231
2024-06-15 20:28:54.699840,-30.363011728833893,11.072506748419588,0.10753289746709403,0.1923121064901352,0.4978761672973633,-0.8473438620567322,0.0020439361687749624,0.0022401963360607624,0.005117448512464762
2024-06-15 20:28:54.725255,-30.36401918173647,11.081402216039884,0.10552297423157894,0.194271057844162,0.4979850947856903,-0.8429696559906006,0.0010535427136346698,0.004976143594831228,0.002590584335848689
2024-06-15 20:28:54.743969,-30.363121011860613,11.080917272608813,0.10743248568216691,0.18974506855010986,0.5000817775726318,-0.8422508835792542,0.00247014919295907,-9.102263720706105e-05,0.0031605963595211506
2024-06-15 20:28:54.762284,-30.357609049200413,11.084945376671827,0.1166051762734428,0.1861131638288498,0.4983521103858948,-0.846399188041687,0.002865638118237257,0.0014212726382538676,0.009032733738422394
2024-06-15 20:28:54.785659,-30.35594248304293,11.096336424660116,0.11730010800085193,0.19866208732128143,0.4983406960964203,-0.8459040522575378,0.002354596508666873,0.004695538431406021,0.005515360273420811
2024-06-15 20:28:54.801299,-30.35354167154967,11.102050731674478,0.12059369992382613,0.19547083973884583,0.5002856254577637,-0.8437515497207642,0.0032490065786987543,0.0015503597678616643,0.004496236331760883
2024-06-15 20:28:54.821971,-30.348774199509002,11.107585746223128,0.12574578365191816,0.19431236386299133,0.49564242362976074,-0.851654589176178,0.000463503529317677,0.002455130685120821,0.007104668766260147
2024-06-15 20:28:54.841216,-30.34595674647637,11.119184261207455,0.1275250612709197,0.2033163160085678,0.4959157705307007,-0.8451883792877197,0.0032717259600758553,0.002848397009074688,0.005831041838973761
2024-06-15 20:28:54.863968,-30.346824180500963,11.118117897923288,0.1277636243039809,0.19263792037963867,0.5005828738212585,-0.8429960012435913,0.0015372993657365441,-3.809359623119235e-05,0.0008778520859777927
2024-06-15 20:28:54.881843,-30.344498501088573,11.122963917139412,0.1287583773235698,0.18944351375102997,0.5003196001052856,-0.8477303981781006,0.0017292870907112956,0.003953974228352308,0.004795978777110577
2024-06-15 20:28:54.905928,-30.34303001041702,11.134261050026613,0.13640552115133953,0.2017296552658081,0.4988234341144562,-0.8450753092765808,0.001668608863838017,0.0009423992596566677,0.008279300294816494
2024-06-15 20:28:54.923195,-30.340277444181506,11.135184833111856,0.13701716992759946,0.19694632291793823,0.4972631335258484,-0.8463380336761475,0.0020731312688440084,-0.00019160142983309925,0.0020587770268321037
2024-06-15 20:28:54.938823,-30.339020689374223,11.14070960237675,0.13512879604486283,0.1960780918598175,0.4965374767780304,-0.8473988771438599,0.0016449583927169442,0.002777195069938898,0.0032645866740494967
2024-06-15 20:28:54.965605,-30.33820106667382,11.146067885780626,0.1390211767785503,0.19843360781669617,0.49993768334388733,-0.8462006449699402,0.0023924007546156645,0.000709150917828083,0.004043067805469036
2024-06-15 20:28:54.983672,-30.338269368565523,11.14695068773085,0.13930325558714388,0.19385087490081787,0.49964529275894165,-0.8436979651451111,0.0006308722076937556,0.00048609747318550944,0.0004109694273211062
2024-06-15 20:28:54.999199,-30.338498179902718,11.149963654928472,0.1366811699771598,0.19502276182174683,0.5002705454826355,-0.8455876111984253,0.0009540059836581349,0.0014256727881729603,0.0014960799599066377
2024-06-15 20:28:55.025966,-30.335848066504752,11.150875485182668,0.14298302000248825,0.192586287856102,0.4990397095680237,-0.8466724157333374,0.002233556006103754,-0.0009141081827692688,0.005273567046970129
2024-06-15 20:28:55.043138,-30.33490550039929,11.157806419642938,0.1435776333264628,0.1978486329317093,0.4966610074043274,-0.8450728058815002,0.0009510632953606546,0.003149548778310418,0.003015355207026005
2024-06-15 20:28:55.061920,-30.333894632402128,11.160512882101557,0.14074181082022494,0.19996857643127441,0.4964117407798767,-0.8467976450920105,0.0008528840262442827,-0.0003688486176542938,0.0001227007305715233
2024-06-15 20:28:55.085928,-30.333877556929203,11.159490061273347,0.14387882866060453,0.19114051759243011,0.4979810118675232,-0.846488356590271,0.0010245386511087418,0.00011457245273049921,0.003366386517882347
2024-06-15 20:28:55.095312,-30.33370338710537,11.16633817968993,0.14673040595865838,0.19664643704891205,0.4973384737968445,-0.8465787172317505,0.0003803636645898223,0.0020666983909904957,0.005243565887212753
2024-06-15 20:28:55.121861,-30.334143934306834,11.167296967494671,0.1480145482236869,0.19796209037303925,0.49747440218925476,-0.8448761701583862,0.0003335459914524108,-0.0013017914025112987,0.0015287004644051194
2024-06-15 20:28:55.145900,-30.333713632389124,11.167291844852794,0.14981182179032584,0.19195634126663208,0.4975873827934265,-0.8459531664848328,0.00046977135934866965,0.00018193002324551344,0.0027603539638221264
2024-06-15 20:28:55.155312,-30.334997707953086,11.172771364114437,0.15061730386471134,0.19987420737743378,0.49986329674720764,-0.8432042002677917,0.0005948723410256207,7.420295150950551e-05,0.001973381033167243
2024-06-15 20:28:55.181964,-30.333894632402128,11.171652066864201,0.150994698496781,0.19566938281059265,0.4970681071281433,-0.8459417819976807,0.000999758020043373,-0.0018520884914323688,0.0007110527367331088
2024-06-15 20:28:55.200447,-30.33500795323684,11.172308618798168,0.14931667309613958,0.19456937909126282,0.49841204285621643,-0.8464584946632385,0.0006589756812900305,0.0009583187056705356,0.0002886870061047375
2024-06-15 20:28:55.208725,-30.33582757593724,11.173575618889206,0.1517046646444921,0.19658829271793365,0.498359352350235,-0.8453187942504883,0.00040936452569440007,-0.0014430893352255225,0.0026289254892617464
2024-06-15 20:28:55.241327,-30.33442055696822,11.173476581146241,0.15423132770929435,0.19549012184143066,0.497222900390625,-0.8464435338973999,0.001184299704618752,-0.0015146615915000439,0.0018492202507331967
2024-06-15 20:28:55.262246,-30.33614517973365,11.177129024804906,0.1528881683409687,0.1966533660888672,0.4995967745780945,-0.8441587686538696,0.0005951268831267953,0.001586289843544364,0.000916925841011107
2024-06-15 20:28:55.283884,-30.335615840072972,11.17678153893088,0.15620854741209403,0.19724085927009583,0.4996013641357422,-0.8438928723335266,0.001048972480930388,-0.002159310504794121,0.0015676561743021011
2024-06-15 20:28:55.302164,-30.333980009766755,11.175862878487514,0.1576960612277023,0.19412776827812195,0.4993012249469757,-0.8467366695404053,0.00027863780269399285,-0.0008528942707926035,0.0020845658145844936
2024-06-15 20:28:55.324805,-30.333515556903194,11.178877553232429,0.15789269597060462,0.1980287879705429,0.49773940443992615,-0.8448095917701721,0.0014287644298747182,-0.00041323481127619743,0.0012842793948948383
2024-06-15 20:28:55.344078,-30.332781311567416,11.177076090838836,0.16036787915258055,0.19457444548606873,0.4976094961166382,-0.8464093208312988,0.000873335637152195,-0.0024320483207702637,0.0016648093005642295
2024-06-15 20:28:55.361663,-30.33264129268943,11.179133685326304,0.1609000736188862,0.19596894085407257,0.49745282530784607,-0.8465979099273682,0.0017174652311950922,-0.0004370102542452514,0.002012362238019705
2024-06-15 20:28:55.377879,-30.333802424848333,11.17921906269093,0.16216169760399482,0.19936001300811768,0.49803605675697327,-0.8441998362541199,0.0002311792632099241,-0.0025416086427867413,0.001324174227192998
2024-06-15 20:28:55.403995,-30.33416783996893,11.176675670998746,0.16382572912096563,0.19366665184497833,0.49879199266433716,-0.8465398550033569,-0.00039347418351098895,-0.0022861601319164038,0.0022426131181418896
2024-06-15 20:28:55.421186,-30.335086500412295,11.178945855124129,0.16384005650996677,0.1950637549161911,0.49859246611595154,-0.8451794981956482,-0.0005324629601091146,0.00024345153360627592,0.0015118296723812819
2024-06-15 20:28:55.451740,-30.335168462682336,11.180615836376196,0.16694717893251435,0.19726184010505676,0.49810099601745605,-0.8440948724746704,0.00017649968503974378,-0.0010658209212124348,0.002375979907810688
2024-06-15 20:28:55.463965,-30.335250424952378,11.180364826924198,0.16670043834874762,0.196589395403862,0.49730703234672546,-0.8465244174003601,-0.0006127635715529323,-0.00031440769089385867,0.0005108819459564984
2024-06-15 20:28:55.481469,-30.335414349492456,11.18104101565203,0.16541090663757715,0.1967068910598755,0.4974910616874695,-0.8455976843833923,1.686665927991271e-05,-7.928737613838166e-05,0.00052758923266083
2024-06-15 20:28:55.505201,-30.334861104169686,11.180252982576539,0.168604073435411,0.19556979835033417,0.4979681968688965,-0.8456917405128479,0.0007987214485183358,-0.0017441798700019717,0.0025458659511059523
2024-06-15 20:28:55.523938,-30.33493965134514,11.181832463822104,0.16889419639257788,0.19530025124549866,0.4993814527988434,-0.8458829522132874,0.0003447912458796054,0.00020930462051182985,0.0006896081613376737
2024-06-15 20:28:55.533714,-30.335451915532893,11.18187429873077,0.16794776162528155,0.19810569286346436,0.4988865554332733,-0.8441317081451416,0.00010479189222678542,-0.0011879050871357322,-0.0005709069082513452
2024-06-15 20:28:55.565617,-30.333727292767463,11.17997294482057,0.17204591514792886,0.19306275248527527,0.49771732091903687,-0.8451517820358276,0.001517080469056964,-0.002093224786221981,0.002751842839643359
2024-06-15 20:28:55.583416,-30.334850858885932,11.18339828468933,0.17183145788016105,0.19849158823490143,0.49912476539611816,-0.8456664681434631,0.000303868786431849,0.0005087511381134391,0.0014961016131564975
2024-06-15 20:28:55.594301,-30.333973179577583,11.182909072390029,0.1714048378612997,0.1967114955186844,0.4971923530101776,-0.8454194068908691,0.0004115220799576491,-0.0017033903859555721,-0.000354900723323226
2024-06-15 20:28:55.625654,-30.333781934280825,11.18166512418744,0.174072226835388,0.19361352920532227,0.4989163875579834,-0.8462426066398621,0.0009053864050656557,-0.0013895472511649132,0.0016601455863565207
2024-06-15 20:28:55.643771,-30.33429078337399,11.184388662118982,0.1738265401284659,0.19823743402957916,0.49868127703666687,-0.844887375831604,0.000713750661816448,-0.0010038157925009727,0.0012913205428048968
2024-06-15 20:28:55.654732,-30.33366923615952,11.18325911958499,0.17499978520097426,0.197018563747406,0.4986927807331085,-0.8458307385444641,0.0006411897484213114,-0.0025601214729249477,0.001319766161032021
2024-06-15 20:28:55.685853,-30.333843405983355,11.183303515814597,0.17422992149589334,0.19532401859760284,0.4993506371974945,-0.8463341593742371,0.0003552271518856287,-0.0007437420426867902,0.001127549447119236
2024-06-15 20:28:55.700100,-30.33373070786205,11.18323436014925,0.17597666233484474,0.19749578833580017,0.49874573945999146,-0.8438860774040222,0.0006809429614804685,-0.002778559224680066,0.0014129453338682652
2024-06-15 20:28:55.721843,-30.33212219831251,11.180759270348766,0.17745949373561187,0.19510149955749512,0.49847716093063354,-0.846529483795166,0.0012175502488389611,-0.003250697860494256,0.0010094934841617942
2024-06-15 20:28:55.745177,-30.33334821726853,11.181178473209076,0.17779920226532744,0.19558802247047424,0.4994058907032013,-0.8452677130699158,0.0004054898163303733,-0.0014074050122871995,0.0010279431007802486
2024-06-15 20:28:55.761949,-30.33336529274145,11.1826759921846,0.18110095839879392,0.19757501780986786,0.49845555424690247,-0.8454336524009705,0.0005263564526103437,-0.0025057378225028515,0.003251279704272747
2024-06-15 20:28:55.781826,-30.332033405853302,11.181379963789592,0.18174839896713033,0.19521595537662506,0.4981684982776642,-0.846209704875946,0.0013633489143103361,-0.0014868194703012705,0.0019860786851495504
2024-06-15 20:28:55.806001,-30.333590688984064,11.18324802052759,0.1802136341162873,0.19703713059425354,0.5003210306167603,-0.8445659279823303,0.0004897663020528853,-0.0007479471969418228,0.0004621825064532459
2024-06-15 20:28:55.815601,-30.333184292728447,11.181870029862539,0.18284194960584638,0.19584956765174866,0.5002259612083435,-0.8453861474990845,0.0009263433748856187,-0.0028057110030204058,0.0015239460626617074
2024-06-15 20:28:55.841861,-30.333283330471414,11.182676845958248,0.18251768904304266,0.19560393691062927,0.5000094771385193,-0.8453157544136047,0.0005067596794106066,-0.00031228692387230694,0.0006589305121451616
2024-06-15 20:28:55.874099,-30.331620179408514,11.181816242122826,0.18344932951387505,0.1944245994091034,0.4964119493961334,-0.8455082774162292,0.0016991603188216686,-0.0020974576473236084,0.0005833140457980335
2024-06-15 20:28:55.887127,-30.333372122930623,11.182834794082805,0.18196676491737238,0.19641749560832977,0.49871954321861267,-0.8457325100898743,-3.67894972441718e-05,-0.0005892150802537799,0.0007176101207733154
2024-06-15 20:28:55.925592,-30.333658990875765,11.182183364790713,0.18375317955044806,0.19709934294223785,0.49939092993736267,-0.8446064591407776,0.0013070995919406414,-0.002497176406905055,0.0012636504834517837
2024-06-15 20:28:55.935773,-30.333020368188368,11.180969298665744,0.18341879376580833,0.1941949725151062,0.49840041995048523,-0.8460671305656433,0.0009788161842152476,-0.001234277500770986,0.0005879930686205626
2024-06-15 20:28:55.961962,-30.334000500334263,11.182475355377733,0.18282722201044854,0.197101429104805,0.4976930022239685,-0.8449665904045105,-3.43981955666095e-05,-0.0008751037530601025,0.0003280739765614271
2024-06-15 20:28:55.981363,-30.333139896498842,11.181910157223914,0.18406559400391004,0.1970456838607788,0.4970640540122986,-0.8456481099128723,0.0007013935246504843,-0.0021205502562224865,0.0008998038247227669
2024-06-15 20:28:56.003733,-30.333727292767463,11.181213477928573,0.18422887821375564,0.19480952620506287,0.49756112694740295,-0.8465021252632141,0.0011879492085427046,-0.001606629230082035,0.001060017733834684
2024-06-15 20:28:56.021351,-30.334137104117666,11.182358388388195,0.18519789796203798,0.1987055093050003,0.4984797537326813,-0.8448609113693237,0.0009269677684642375,-0.002207665704190731,0.0006831844220869243
2024-06-15 20:28:56.043299,-30.332870104026625,11.180042100485915,0.18643414886159707,0.19650138914585114,0.49769067764282227,-0.8463823199272156,0.001304498640820384,-0.003789848880842328,0.0006444283062592149
2024-06-15 20:28:56.063828,-30.333600934267817,11.17938042591007,0.18504172408584005,0.19546453654766083,0.4983622431755066,-0.8454759120941162,0.0008735954761505127,-0.0007101627998054028,0.0003322409465909004
2024-06-15 20:28:56.081415,-30.333539462565287,11.179129416458073,0.18497560998910845,0.1954159438610077,0.49818384647369385,-0.8449066877365112,0.001828737324103713,-0.001357653527520597,0.0006069829105399549
2024-06-15 20:28:56.096089,-30.33229978323093,11.178375534328433,0.18615066933061508,0.1964660882949829,0.4979800879955292,-0.8457624912261963,0.0009505165508016944,-0.002219640649855137,0.0012034628307446837
2024-06-15 20:28:56.123824,-30.332569575703147,11.178315770173194,0.18314701360182264,0.19817954301834106,0.4982021152973175,-0.8458306193351746,0.001563639147207141,-0.0012109888484701514,-0.0015698941424489021
2024-06-15 20:28:56.142071,-30.332576405892315,11.175454774684605,0.18462855100190717,0.1959080547094345,0.49917635321617126,-0.8446453213691711,0.0013545849360525608,-0.0035220342688262463,1.0355026461184025e-05
2024-06-15 20:28:56.159223,-30.331838745461955,11.173960670803664,0.18518602517226979,0.19493703544139862,0.49829456210136414,-0.845609724521637,0.0006927606882527471,-0.0022353478707373142,0.00021631582058034837
2024-06-15 20:28:56.168402,-30.332965726675006,11.172796123550178,0.18482553259035328,0.19853658974170685,0.49772369861602783,-0.8441254496574402,4.6913530240999535e-05,-0.0024985228665173054,0.0003672150196507573
2024-06-15 20:28:56.201251,-30.333638500308254,11.168067925097237,0.1840555755037798,0.1950273960828781,0.4999382197856903,-0.8462127447128296,0.0014149619964882731,-0.003082549897953868,-0.0007831027032807469
2024-06-15 20:28:56.216356,-30.33364191540284,11.165892509846588,0.18501236227653695,0.1947060376405716,0.497772216796875,-0.8445022702217102,0.0002909974136855453,-0.0027002207934856415,0.0005844765109941363
2024-06-15 20:28:56.243968,-30.334253217333554,11.163600127606403,0.18626791646462923,0.19832603633403778,0.49907100200653076,-0.8450527191162109,0.0006642329972237349,-0.0036817160435020924,0.00023036978382151574
2024-06-15 20:28:56.286002,-30.336695009961833,11.154570617523646,0.18500094305401832,0.19476188719272614,0.49838006496429443,-0.844510018825531,-0.0007568604196421802,-0.003672191873192787,-0.0019220432732254267
2024-06-15 20:28:56.303162,-30.33724484019002,11.149927796435328,0.18731715091501955,0.19637437164783478,0.4982958734035492,-0.8458619117736816,-0.0007845779182389379,-0.0049337539821863174,-0.0005905419820919633
2024-06-15 20:28:56.312341,-30.338733821429084,11.14519447534051,0.18637659918175442,0.195259228348732,0.4980647563934326,-0.8457858562469482,-0.0004054964520037174,-0.003684200346469879,-0.0021778647787868977
2024-06-15 20:28:56.351872,-30.340793123463843,11.141334564685806,0.18629505045832417,0.19653958082199097,0.4979618489742279,-0.8454062342643738,-0.0007303828606382012,-0.0037289015017449856,-0.001494562835432589
2024-06-15 20:28:56.356015,-30.341523953705032,11.134791243460935,0.18818011596818157,0.1947343349456787,0.49827447533607483,-0.8454726934432983,0.0006895091501064599,-0.005846999119967222,-0.0011853990145027637
2024-06-15 20:28:56.381955,-30.34229234998666,11.130034016704021,0.18814687215683065,0.19524964690208435,0.49912384152412415,-0.8452328443527222,0.00020326848607510328,-0.004638094455003738,-0.0008993240771815181
2024-06-15 20:28:56.405985,-30.343292972700066,11.124551936121438,0.18810252928807847,0.19714690744876862,0.49882617592811584,-0.8452745676040649,-0.0001843046338763088,-0.006169766187667847,-0.0016258106334134936
2024-06-15 20:28:56.418266,-30.34418431238675,11.11685516670048,0.1877555903627962,0.1929825097322464,0.49786069989204407,-0.8452813625335693,0.0003791129565797746,-0.005572819616645575,-0.0023636880796402693
2024-06-15 20:28:56.441872,-30.346025048368073,11.113016600386933,0.1868952266512126,0.19718067348003387,0.4986928701400757,-0.8458179235458374,-0.0004771067760884762,-0.005011722911149263,-0.001715618884190917
2024-06-15 20:28:56.466104,-30.34633923706989,11.105794529113291,0.1873513952423622,0.19574275612831116,0.49902793765068054,-0.8452658653259277,-2.285111986566335e-05,-0.006033517420291901,-0.0028691377956420183
2024-06-15 20:28:56.480993,-30.347582331498835,11.098776509741104,0.1869982797983578,0.1926511824131012,0.4984745383262634,-0.846001386642456,-0.00012695057375822216,-0.00543620903044939,-0.0015890039503574371
2024-06-15 20:28:56.501822,-30.348818595738607,11.093851089575878,0.18807434141753893,0.19525998830795288,0.49892565608024597,-0.8452504873275757,-3.164536610711366e-05,-0.006144881248474121,-0.0004019168554805219
2024-06-15 20:28:56.525975,-30.349467463709757,11.086919301341961,0.18868792452471617,0.19485622644424438,0.4980950355529785,-0.8456050753593445,0.0004933882737532258,-0.0072416584007442,-0.002155811758711934
2024-06-15 20:28:56.543238,-30.350850577016686,11.08083616411242,0.18787703966397548,0.19302594661712646,0.5001454949378967,-0.8455309867858887,-2.6852529117604718e-05,-0.005125031806528568,-0.002155351685360074
2024-06-15 20:28:56.567119,-30.35195023747306,11.074907559912848,0.18997509501814622,0.19462889432907104,0.5005996227264404,-0.8453384041786194,0.0012457260163500905,-0.0064352406188845634,-0.0013103694655001163
2024-06-15 20:28:56.585407,-30.352274671458634,11.068382167934546,0.19154445104187565,0.19421131908893585,0.49795639514923096,-0.8459175229072571,-3.82079160772264e-05,-0.006183774676173925,-0.0011316218879073858
2024-06-15 20:28:56.595477,-30.35395148289987,11.062629441106104,0.1898514979426381,0.19495277106761932,0.4979022443294525,-0.8457911014556885,-0.0011364365927875042,-0.005512169562280178,-0.0028383044991642237
2024-06-15 20:28:56.621811,-30.355460954706444,11.05556019531514,0.1917009851038306,0.19377893209457397,0.4990863800048828,-0.845913827419281,-0.00030718964990228415,-0.006805415730923414,-0.0003508150693960488
2024-06-15 20:28:56.645912,-30.357069464255982,11.049998713783458,0.19276358644787003,0.19446028769016266,0.4977700710296631,-0.8454407453536987,-0.0006520777242258191,-0.006881357170641422,-0.0011192013043910265
2024-06-15 20:28:56.655736,-30.358251086982396,11.044305751110253,0.1924542402434493,0.19613127410411835,0.4991389811038971,-0.845502495765686,-0.00016827501531224698,-0.0067717330530285835,-0.0019135568290948868
2024-06-15 20:28:56.668209,-30.35920389837161,11.034411368323843,0.1925193671644024,0.1922263652086258,0.4988032877445221,-0.8458346724510193,-0.0003187366819474846,-0.007658427115529776,-0.0031148374546319246
2024-06-15 20:28:56.705903,-30.360149879571658,11.028586070735468,0.19161471394491952,0.19242922961711884,0.4992629289627075,-0.8462098836898804,0.00010496117465663701,-0.004900231026113033,-0.0031530619598925114
2024-06-15 20:28:56.715560,-30.360846558867,11.02293665051822,0.19190546389210786,0.19499164819717407,0.4990442991256714,-0.845170795917511,0.0004660754930227995,-0.006162422243505716,-0.0017395978793501854
2024-06-15 20:28:56.741957,-30.362140879714715,11.015450763187888,0.19170050485615459,0.19341447949409485,0.49939194321632385,-0.8456292748451233,0.00042050774209201336,-0.006521984469145536,-0.0026232311502099037
2024-06-15 20:28:56.763014,-30.36235603067357,11.008657286284663,0.19060846166153267,0.193550243973732,0.4992044270038605,-0.8456096649169922,0.0008543665171600878,-0.0062843081541359425,-0.002799488604068756
2024-06-15 20:28:56.768686,-30.363537653399984,11.001330200852532,0.19217939183042237,0.19361771643161774,0.4994288384914398,-0.845099151134491,0.00012699207582045346,-0.007564624305814505,-0.0014112327480688691
2024-06-15 20:28:56.801533,-30.365327162962526,10.993744422005586,0.1916677546326929,0.1932329684495926,0.49958041310310364,-0.8459140062332153,2.156785922124982e-05,-0.006590098142623901,-0.002806875156238675
2024-06-15 20:28:56.824536,-30.368042163157607,10.985875190308086,0.18998349935247652,0.19292375445365906,0.49946942925453186,-0.8453691601753235,-0.0012353339698165655,-0.0065850201062858105,-0.0036434123758226633
2024-06-15 20:28:56.843839,-30.369070106627696,10.977186335910183,0.19194302993254292,0.19157105684280396,0.49898606538772583,-0.8462293148040771,-0.0002712611749302596,-0.00815731380134821,-0.0023704571649432182
2024-06-15 20:28:56.861663,-30.370258559543277,10.970179415595396,0.191464076257209,0.19399215281009674,0.4986066520214081,-0.8453938961029053,-0.00014788229600526392,-0.006932221353054047,-0.0029121949337422848
2024-06-15 20:28:56.877757,-30.371764616255266,10.960643617740413,0.1912359185904615,0.19424200057983398,0.4998612701892853,-0.8458797335624695,-0.0008338893530890346,-0.009393906220793724,-0.003832129528746009
2024-06-15 20:28:56.903834,-30.373297993723934,10.949314041454654,0.193644880954,0.18903382122516632,0.49900099635124207,-0.8457214832305908,-0.0012376019731163979,-0.00847544614225626,-0.0028524540830403566
2024-06-15 20:28:56.921178,-30.375603182568813,10.94256154568645,0.19380721800870682,0.19376219809055328,0.4988083839416504,-0.8454886078834534,-0.0014757676981389523,-0.008054826408624649,-0.002521781250834465
2024-06-15 20:28:56.937520,-30.376443295836722,10.932068667574017,0.19444171857021722,0.1923750787973404,0.49903398752212524,-0.8464818000793457,-0.0006706475396640599,-0.009344026446342468,-0.0028224473353475332
2024-06-15 20:28:56.963956,-30.37845137145271,10.922591780100625,0.19314837155806505,0.19022612273693085,0.49837303161621094,-0.8465861678123474,-0.0014822448138147593,-0.007781956344842911,-0.0036618681624531746
2024-06-15 20:28:56.981744,-30.379335880950222,10.915162241830943,0.19448656836707187,0.19204342365264893,0.4982800781726837,-0.8454059958457947,0.000260752480244264,-0.008143458515405655,-0.0012780990218743682
2024-06-15 20:28:57.005047,-30.38064386217628,10.906341052517872,0.19630105080876806,0.19011293351650238,0.4995834529399872,-0.8459253311157227,-0.00018737700884230435,-0.008225581608712673,-0.0025040123146027327
2024-06-15 20:28:57.023989,-30.38251191891428,10.900184490754752,0.19655506180874113,0.19187840819358826,0.5007445812225342,-0.8458836674690247,0.00018886919133365154,-0.0061423080042004585,-0.0011498758103698492
2024-06-15 20:28:57.032758,-30.383212013304206,10.891882395818602,0.19941005420138003,0.19196154177188873,0.4984685182571411,-0.8438159227371216,7.181167893577367e-05,-0.008073944598436356,-0.0012278034118935466
2024-06-15 20:28:57.065636,-30.38511080589347,10.88273079610443,0.19816373144083782,0.19244594871997833,0.49888747930526733,-0.8463473320007324,-0.000956253323238343,-0.007235389668494463,-0.0034347365144640207
2024-06-15 20:28:57.083392,-30.386606617321704,10.872857757659176,0.1968197182988659,0.19293373823165894,0.4979821741580963,-0.8463189601898193,-0.00036033117794431746,-0.009255409240722656,-0.0034419256262481213
2024-06-15 20:28:57.094321,-30.38734769284665,10.861574285150315,0.19824202515224174,0.1901031881570816,0.49713706970214844,-0.8461789488792419,0.00019005915964953601,-0.00903527345508337,-0.003505157306790352
2024-06-15 20:28:57.125733,-30.389731428866984,10.850770633430647,0.19574488397930126,0.19133427739143372,0.5000179409980774,-0.8467509746551514,-0.00023750080436002463,-0.008970211260020733,-0.005575203336775303
2024-06-15 20:28:57.143883,-30.3906159383645,10.841379977095526,0.1966884239203283,0.191419780254364,0.4992320239543915,-0.845150887966156,-0.0001708929630694911,-0.008957923389971256,-0.0028987000696361065
2024-06-15 20:28:57.155079,-30.39341290082962,10.830249330069345,0.1953390746930673,0.19087082147598267,0.5004718899726868,-0.8470246195793152,-0.0011438264045864344,-0.009611334651708603,-0.0055748214945197105
2024-06-15 20:28:57.185517,-30.39650356142905,10.81987768781468,0.1919798889416772,0.18927443027496338,0.5006533861160278,-0.8449257016181946,-0.0009308739099651575,-0.007261406164616346,-0.005389666650444269
2024-06-15 20:28:57.199986,-30.396800674657946,10.808683861538675,0.19223846229457242,0.1893903762102127,0.5004734992980957,-0.8459684252738953,-0.0001295443216804415,-0.009332865476608276,-0.004123224411159754
2024-06-15 20:28:57.222085,-30.398217938910722,10.798517124959112,0.19209478819816414,0.1891806721687317,0.5000554323196411,-0.8460359573364258,-0.0002345952088944614,-0.008809216320514679,-0.004421282559633255
2024-06-15 20:28:57.252066,-30.399850354122357,10.787857760985661,0.19103769636218565,0.19021765887737274,0.49999910593032837,-0.8460680246353149,0.0005038429517298937,-0.00909268669784069,-0.00420830212533474
2024-06-15 20:28:57.261986,-30.40082707117367,10.776318156382924,0.19206890818451214,0.1883798986673355,0.49933773279190063,-0.8463703393936157,0.00011804615496657789,-0.010144972242414951,-0.004082719795405865
2024-06-15 20:28:57.281546,-30.401991618427157,10.76760027368105,0.18950693357530946,0.1897544413805008,0.4999275207519531,-0.8469330668449402,0.001215019030496478,-0.008079055696725845,-0.0053765722550451756
2024-06-15 20:28:57.305169,-30.40339863739618,10.75626642852706,0.18879911520192721,0.18846382200717926,0.4997220039367676,-0.8459855914115906,-0.0001231703208759427,-0.009566615335643291,-0.004835914354771376
2024-06-15 20:28:57.314841,-30.40544769414718,10.745348371138794,0.1889190303785859,0.1875116527080536,0.5006221532821655,-0.8454529643058777,-0.00028853907133452594,-0.0082572465762496,-0.0034402061719447374
2024-06-15 20:28:57.342007,-30.40603167532122,10.736039677073713,0.18973835959429652,0.1923917531967163,0.4992488622665405,-0.8455662727355957,0.0003367224126122892,-0.010800723917782307,-0.0039697084575891495
2024-06-15 20:28:57.365656,-30.40838809058487,10.722550907236585,0.1864223961337479,0.18890412151813507,0.501203715801239,-0.8457949161529541,-0.0003403093433007598,-0.00962935108691454,-0.006915972102433443
2024-06-15 20:28:57.375671,-30.409446769906225,10.709616236495872,0.18421821938339072,0.18624557554721832,0.4992038607597351,-0.8450831770896912,3.479592123767361e-05,-0.009052055887877941,-0.006392746232450008
2024-06-15 20:28:57.387069,-30.410611317159713,10.698151763974005,0.18402897511861377,0.189316987991333,0.5021898150444031,-0.8454878330230713,0.00043689151061698794,-0.010991210117936134,-0.005344308912754059
2024-06-15 20:28:57.426141,-30.411591449305607,10.684114871455984,0.18160950066705575,0.18701905012130737,0.5009463429450989,-0.8457057476043701,0.00016367515490856022,-0.010513588786125183,-0.007175160571932793
2024-06-15 20:28:57.435499,-30.412189090857986,10.67103249787447,0.18060266141428713,0.18712562322616577,0.5009939074516296,-0.8454504609107971,0.0005378072382882237,-0.010786100290715694,-0.006140665616840124
2024-06-15 20:28:57.467879,-30.410454222808802,10.659036124370989,0.18147696564868843,0.18838275969028473,0.49877968430519104,-0.8462827205657959,0.0012442233273759484,-0.010918729938566685,-0.005733618047088385
2024-06-15 20:28:57.481737,-30.410119543539473,10.64503252902517,0.1768974572123271,0.18710753321647644,0.4979919195175171,-0.847020149230957,0.0016192265320569277,-0.009271458722651005,-0.008722797967493534
2024-06-15 20:28:57.503984,-30.4117075625215,10.631229570486221,0.17428021409974284,0.1855037808418274,0.501203179359436,-0.8463239669799805,0.0012746314750984311,-0.010328753851354122,-0.00716194836422801
2024-06-15 20:28:57.521922,-30.41050886432216,10.619312597931842,0.17498130900566083,0.18621918559074402,0.5006479024887085,-0.8459309339523315,0.0017909903544932604,-0.009993532672524452,-0.004838290624320507
2024-06-15 20:28:57.543423,-30.411109920969125,10.606840672507397,0.17113153691300662,0.18908058106899261,0.5007866621017456,-0.846098780632019,0.0010410549584776163,-0.009733740240335464,-0.0078088343143463135
2024-06-15 20:28:57.563895,-30.411075770023274,10.593040275289386,0.16958448572578552,0.1874321550130844,0.5006028413772583,-0.8464211821556091,0.0007588279549963772,-0.010997959412634373,-0.007549474015831947
2024-06-15 20:28:57.581410,-30.41078890207813,10.5772411939655,0.16882649481047277,0.18460242450237274,0.4998469948768616,-0.8469412326812744,0.00048382359091192484,-0.010837915353477001,-0.006307590287178755
2024-06-15 20:28:57.605947,-30.411499241751812,10.564676207213617,0.16482475100878577,0.18725436925888062,0.5004860758781433,-0.8468676805496216,0.0011430972954258323,-0.010310770012438297,-0.007486231625080109
2024-06-15 20:28:57.623965,-30.411840751210313,10.549566121222256,0.16377810455976066,0.1857420802116394,0.4999220073223114,-0.8457807302474976,0.0013413520064204931,-0.011441276408731937,-0.006547656375914812
2024-06-15 20:28:57.641910,-30.41150948703557,10.534331384278543,0.15972453402970355,0.1852501630783081,0.5013661980628967,-0.8469181656837463,0.001456426689401269,-0.011004923842847347,-0.009281774051487446
2024-06-15 20:28:57.656635,-30.41098697756406,10.51753168024125,0.15796700095825497,0.18478672206401825,0.499481737613678,-0.8465539813041687,0.0008149626664817333,-0.012848924845457077,-0.007697782013565302
2024-06-15 20:28:57.683798,-30.410519109605918,10.502349023489957,0.156808696924556,0.18498015403747559,0.5004448890686035,-0.8470577597618103,0.0014740522019565105,-0.01238897442817688,-0.007053893990814686
2024-06-15 20:28:57.701188,-30.41048154356548,10.489465579168021,0.15343062143124256,0.1847904771566391,0.5008777379989624,-0.8458635807037354,0.0012493382673710585,-0.010505633428692818,-0.007786583621054888
2024-06-15 20:28:57.715483,-30.409016467988515,10.473887625218515,0.15348300844856805,0.18437372148036957,0.4994831085205078,-0.847868025302887,0.0012476579286158085,-0.01269594021141529,-0.00622915755957365
2024-06-15 20:28:57.743955,-30.4070835244534,10.459703029859691,0.1547065994857788,0.18640084564685822,0.4996204078197479,-0.8486072421073914,0.0021054400131106377,-0.013065592385828495,-0.005747589748352766
2024-06-15 20:28:57.761845,-30.405229128093744,10.443148358858872,0.15387031485906214,0.1880066990852356,0.4997115433216095,-0.8497025966644287,0.0017873384058475494,-0.015022673644125462,-0.00837424211204052
2024-06-15 20:28:57.786006,-30.403921146867685,10.420575437425626,0.15442332005799517,0.18308301270008087,0.49945154786109924,-0.852626621723175,0.0003718756779562682,-0.0174949299544096,-0.008214539848268032
2024-06-15 20:28:57.796304,-30.405147165823703,10.400146341618118,0.1578533290013845,0.18145735561847687,0.5004724264144897,-0.8472133874893188,-0.00041465816320851445,-0.017217647284269333,-0.006133292336016893
2024-06-15 20:28:57.806440,-30.407298675412257,10.380085222252145,0.15870336738793372,0.18548351526260376,0.5020409226417542,-0.8493854999542236,-0.0010365775087848306,-0.01844990812242031,-0.008129594847559929
2024-06-15 20:28:57.845986,-30.411827090831974,10.357816244236965,0.1564996708852526,0.18145431578159332,0.5005965232849121,-0.8464184403419495,-0.002103519858792424,-0.016105499118566513,-0.009637521579861641
2024-06-15 20:28:57.855798,-30.414787977837175,10.336853539900549,0.1591806935572545,0.1824820637702942,0.5019566416740417,-0.8471387624740601,-0.0016194931231439114,-0.01846844144165516,-0.00682686734944582
2024-06-15 20:28:57.866377,-30.416860940250274,10.314828741148196,0.16160763852821722,0.1837259978055954,0.4990259110927582,-0.8535506725311279,-0.002673093695193529,-0.018715059384703636,-0.007792886812239885
2024-06-15 20:28:57.905990,-30.42437414833729,10.291869914026845,0.15883735648954234,0.17876365780830383,0.5005021095275879,-0.8466313481330872,-0.00462715420871973,-0.01650860905647278,-0.010369258932769299
2024-06-15 20:28:57.918363,-30.429418243039343,10.271429719161935,0.16240155463773862,0.18190105259418488,0.5025116205215454,-0.8458536863327026,-0.0038104290142655373,-0.020049136132001877,-0.005696423351764679
2024-06-15 20:28:57.941900,-30.433649545230164,10.248954127924362,0.1641032055559974,0.17994505167007446,0.5020633339881897,-0.8477205038070679,-0.0040275705978274345,-0.01764603704214096,-0.008091769181191921
2024-06-15 20:28:57.966051,-30.441118357087575,10.231025735126725,0.1582861121987547,0.17993304133415222,0.503372073173523,-0.8450914621353149,-0.003999446053057909,-0.014416983351111412,-0.010570431128144264
2024-06-15 20:28:57.981128,-30.4439597157823,10.210558219505135,0.16337987251463718,0.18002769351005554,0.5009300112724304,-0.8475714325904846,-0.003164438297972083,-0.018811767920851707,-0.0046734316274523735
2024-06-15 20:28:58.001827,-30.448231999108142,10.191922048354755,0.16547461949592868,0.18225876986980438,0.4999610185623169,-0.849353015422821,-0.004206394776701927,-0.016745245084166527,-0.007535434328019619
2024-06-15 20:28:58.026004,-30.456226735531644,10.171322197817997,0.15704958115471795,0.1855660378932953,0.5000907182693481,-0.845619261264801,-0.005043273326009512,-0.01663375459611416,-0.013992239721119404
2024-06-15 20:28:58.043173,-30.460902000018518,10.142639672172175,0.15872183024303393,0.17541004717350006,0.5015977621078491,-0.8481397032737732,-0.003676030319184065,-0.020192166790366173,-0.00963079184293747
2024-06-15 20:28:58.061760,-30.466680340056346,10.12439879822001,0.15862779508002725,0.1801357865333557,0.5002779960632324,-0.8476221561431885,-0.00431995652616024,-0.015217880718410015,-0.009605161845684052
2024-06-15 20:28:58.085396,-30.47494486895206,10.101147980511639,0.1531239165890399,0.18367566168308258,0.5021476745605469,-0.8440499901771545,-0.004395654425024986,-0.01915479265153408,-0.014077969826757908
2024-06-15 20:28:58.095613,-30.47809358615944,10.071226629305107,0.15172319420065838,0.17167288064956665,0.5006116032600403,-0.8506128787994385,-0.004257284104824066,-0.01949913427233696,-0.012501182965934277
2024-06-15 20:28:58.121849,-30.48527211497712,10.051279915607731,0.14742986001835,0.17498651146888733,0.502312421798706,-0.8468435406684875,-0.003139728447422385,-0.01476361509412527,-0.011531823314726353
2024-06-15 20:28:58.151928,-30.49112900219041,10.030383805615722,0.1479002092561553,0.17901939153671265,0.5032129883766174,-0.8448951244354248,-0.003391317091882229,-0.01766449399292469,-0.009268764406442642
2024-06-15 20:28:58.181916,-30.50044879531289,9.986325670374555,0.14235627010486024,0.17782065272331238,0.5028861165046692,-0.8480246663093567,-0.003366077784448862,-0.016718974336981773,-0.009849841706454754
2024-06-15 20:28:58.205901,-30.505035267340553,9.962338899783116,0.1448247564997984,0.1743486374616623,0.5018354058265686,-0.8467907309532166,-0.0033870397601276636,-0.019303029403090477,-0.008550841361284256
2024-06-15 20:28:58.223629,-30.510079362042607,9.942040431343486,0.13967535415456414,0.17650389671325684,0.5018057823181152,-0.8472245931625366,-0.003715560305863619,-0.01537997741252184,-0.012243452481925488
2024-06-15 20:28:58.234366,-30.516161645498503,9.918592391922832,0.1362068720362406,0.1752804070711136,0.5027115345001221,-0.8478139042854309,-0.003918921574950218,-0.018650008365511894,-0.011976740323007107
2024-06-15 20:28:58.282896,-30.525331174459247,9.87385636040654,0.1400473460002786,0.1774485856294632,0.5020666718482971,-0.8454680442810059,-0.002627117093652487,-0.017334090545773506,-0.008718352764844894
2024-06-15 20:28:58.293215,-30.528333042599467,9.848876651064511,0.13631440749502863,0.17636753618717194,0.5038716793060303,-0.8483954668045044,-0.0008355554309673607,-0.01996300369501114,-0.013039729557931423
2024-06-15 20:28:58.324806,-30.531645684346923,9.821236583040763,0.13524537616821583,0.16603977978229523,0.5028918981552124,-0.8488543629646301,-0.003127095755189657,-0.01734079420566559,-0.01017816923558712
2024-06-15 20:28:58.343897,-30.53564134501138,9.804608487506366,0.1355943694863344,0.17748434841632843,0.5037921667098999,-0.8463908433914185,-0.0012804747093468904,-0.017626004293560982,-0.008753311820328236
2024-06-15 20:28:58.356093,-30.539339892446943,9.777770966710094,0.13227221616685045,0.1752752959728241,0.503232479095459,-0.8462547063827515,-0.0018994372803717852,-0.020196160301566124,-0.013420452363789082
2024-06-15 20:28:58.385960,-30.54254325116768,9.751507181804103,0.12891564509725198,0.16628171503543854,0.5029483437538147,-0.8482794165611267,-0.0016746306791901588,-0.017577040940523148,-0.0111002242192626
2024-06-15 20:28:58.400552,-30.54439423243275,9.73326545407829,0.13378786449214536,0.1760914921760559,0.5039095282554626,-0.8478845357894897,-0.0010294088860973716,-0.01938190497457981,-0.0067329565063118935
2024-06-15 20:28:58.421752,-30.54788445909863,9.705980555891383,0.13155336543713306,0.17251667380332947,0.5023194551467896,-0.8471847176551819,-0.002456296468153596,-0.020452870056033134,-0.012575349770486355
2024-06-15 20:28:58.445952,-30.5511936857515,9.679203653023993,0.12610047324108278,0.16860322654247284,0.504682183265686,-0.8507354855537415,-0.001913701999001205,-0.019108565524220467,-0.012515501119196415
2024-06-15 20:28:58.451446,-30.55685591257344,9.654139420090985,0.12933040566655835,0.1662721037864685,0.5068016052246094,-0.8462858200073242,-0.003671639831736684,-0.019771523773670197,-0.007764316163957119
2024-06-15 20:28:58.481590,-30.559587988241447,9.629359493782179,0.12905303595323236,0.17078231275081635,0.5014166831970215,-0.850281298160553,-0.004207391757518053,-0.0199168398976326,-0.00906512513756752
2024-06-15 20:28:58.497067,-30.56585810189952,9.604144142913784,0.12733164151940404,0.16990035772323608,0.5045133233070374,-0.8486125469207764,-0.0029080722015351057,-0.020087122917175293,-0.011243951506912708
2024-06-15 20:28:58.523949,-30.570669970169792,9.579265178862013,0.12820035620446504,0.1685575246810913,0.5031141042709351,-0.848959743976593,-0.0043603102676570415,-0.020857827737927437,-0.008852911181747913
2024-06-15 20:28:58.541956,-30.57652344228849,9.556093762102744,0.12709469265214277,0.16888649761676788,0.50345778465271,-0.846781849861145,-0.004264050163328648,-0.018227428197860718,-0.011355784721672535
2024-06-15 20:28:58.565914,-30.582209574772527,9.53069143480582,0.12536866916432618,0.168890580534935,0.5040812492370605,-0.8464875817298889,-0.004019467625766993,-0.020257961004972458,-0.012087770737707615
2024-06-15 20:28:58.583384,-30.58599008447813,9.504408013105966,0.1279837778427948,0.16720151901245117,0.5044965744018555,-0.8482165336608887,-0.003036106238141656,-0.021797794848680496,-0.010332927107810974
2024-06-15 20:28:58.593437,-30.59081902822133,9.479219129220605,0.12791651648772603,0.16871675848960876,0.5041476488113403,-0.8489481210708618,-0.003874283516779542,-0.020397858694195747,-0.011432032100856304
2024-06-15 20:28:58.625725,-30.596119255017257,9.452539556548889,0.12853462192718576,0.1684798151254654,0.5049845576286316,-0.847231388092041,-0.004260482732206583,-0.021458735689520836,-0.012579159811139107
2024-06-15 20:28:58.643845,-30.600569123261522,9.425471516868129,0.12877841432383025,0.16681534051895142,0.504857063293457,-0.8484711050987244,-0.003693667473271489,-0.02251332998275757,-0.011627129279077053
2024-06-15 20:28:58.654670,-30.60636453877228,9.399165897053471,0.12847156273928215,0.16569338738918304,0.506523609161377,-0.8466165065765381,-0.003852283814921975,-0.02166871912777424,-0.011096286587417126
2024-06-15 20:28:58.685948,-30.61125495421801,9.371096380885657,0.12876675497747364,0.16088613867759705,0.5060989856719971,-0.8475632071495056,-0.002718595787882805,-0.020644450560212135,-0.010231513530015945
2024-06-15 20:28:58.700234,-30.613177652469364,9.34929356328133,0.13231443794170022,0.16461201012134552,0.5056374073028564,-0.8482697010040283,-0.0013319510035216808,-0.01942109316587448,-0.006589407101273537
2024-06-15 20:28:58.721986,-30.61657225648686,9.327895434385326,0.13309910928345833,0.170134499669075,0.5032936930656433,-0.8490113019943237,-0.002686941996216774,-0.020530568435788155,-0.01105064433068037
2024-06-15 20:28:58.745973,-30.621763200256073,9.29968760688682,0.12894826191858144,0.16558311879634857,0.5050639510154724,-0.8464794754981995,-0.0035166372545063496,-0.020304694771766663,-0.013976910151541233
2024-06-15 20:28:58.762097,-30.626540917580495,9.273360642731006,0.12996713404367694,0.1613737940788269,0.507876992225647,-0.8483007550239563,-0.004040610510855913,-0.02092437632381916,-0.00996678788214922
2024-06-15 20:28:58.781959,-30.629877464990045,9.251344381715116,0.13145700907702562,0.16796740889549255,0.5047773718833923,-0.84786057472229,-0.0036104933824390173,-0.020232535898685455,-0.0093825813382864
2024-06-15 20:28:58.805927,-30.635170861596805,9.22384006370112,0.1246492448054402,0.16788659989833832,0.5051017999649048,-0.8492754697799683,-0.002875847276300192,-0.020890261977910995,-0.015804683789610863
2024-06-15 20:28:58.815365,-30.64187810736176,9.190927943411769,0.1202760694469941,0.15767423808574677,0.5063931345939636,-0.8499414324760437,-0.0050515225157141685,-0.0221372302621603,-0.01501839142292738
2024-06-15 20:28:58.841945,-30.648602428599638,9.166463913352075,0.1208087174805493,0.15899235010147095,0.5070846676826477,-0.8459790945053101,-0.0036090994253754616,-0.019823571667075157,-0.008462237194180489
2024-06-15 20:28:58.865709,-30.65197312695504,9.144988944827908,0.11951330273534763,0.1665681153535843,0.505237340927124,-0.8473586440086365,-0.0023856228217482567,-0.02025499753654003,-0.011160558089613914
2024-06-15 20:28:58.875709,-30.656955749954562,9.114165154877288,0.1131859462223374,0.15791115164756775,0.5043712258338928,-0.8506295084953308,-0.0033675539307296276,-0.021437689661979675,-0.014577713795006275
2024-06-15 20:28:58.887007,-30.66393278819173,9.086042704743406,0.11504563864664526,0.15795180201530457,0.5076873302459717,-0.846633791923523,-0.004352012649178505,-0.022144319489598274,-0.009717801585793495
2024-06-15 20:28:58.926137,-30.668068467734173,9.062297552093856,0.11651428940075667,0.1640128344297409,0.5065746307373047,-0.8468542695045471,-0.004016304854303598,-0.022252006456255913,-0.010173134505748749
2024-06-15 20:28:58.934647,-30.6734609020839,9.032232766914753,0.10967374155517651,0.16079464554786682,0.5062763094902039,-0.8487653732299805,-0.00448866281658411,-0.021058224141597748,-0.01578107662498951
2024-06-15 20:28:58.961950,-30.678470845840103,9.001694991135626,0.10946886923060918,0.1531817764043808,0.5077903270721436,-0.8478968739509583,-0.0027732469607144594,-0.022300884127616882,-0.011866332031786442
2024-06-15 20:28:58.981430,-30.683310034867056,8.975507192084152,0.11106406524735095,0.15756408870220184,0.5064581632614136,-0.8473841547966003,-0.0034912361297756433,-0.021319622173905373,-0.010814915411174297
2024-06-15 20:28:59.003798,-30.686492903020284,8.947908105195422,0.10787045155237414,0.15870212018489838,0.5044004917144775,-0.8508797287940979,-0.0028385017067193985,-0.02182951755821705,-0.012817791663110256
2024-06-15 20:28:59.021204,-30.692353205328153,8.918771371969793,0.10801439245304688,0.1555171012878418,0.5067376494407654,-0.8485257029533386,-0.0026177200488746166,-0.02211342193186283,-0.010706349276006222
2024-06-15 20:28:59.043305,-30.69752707362444,8.893124011636395,0.11069264036069845,0.1605142503976822,0.5051791071891785,-0.8479107022285461,-0.004282777663320303,-0.022983813658356667,-0.010279842652380466
2024-06-15 20:28:59.063948,-30.70246530039436,8.865331971903615,0.10788115040337873,0.16027040779590607,0.505984365940094,-0.8489783406257629,-0.003056113375350833,-0.022782888263463974,-0.014239485375583172
2024-06-15 20:28:59.081398,-30.708936904632942,8.834455247986925,0.10440537118842239,0.1538337916135788,0.5095276236534119,-0.8477494716644287,-0.0028824484907090664,-0.021575475111603737,-0.01453658938407898
2024-06-15 20:28:59.105676,-30.71302818794578,8.80606044405989,0.1052205782782472,0.1534765511751175,0.5080842971801758,-0.847679853439331,-0.003061505500227213,-0.022958265617489815,-0.011181876994669437
2024-06-15 20:28:59.123984,-30.71779565998645,8.778975328906204,0.10506807296068552,0.15658217668533325,0.5085185766220093,-0.848844051361084,-0.0035927481949329376,-0.022362612187862396,-0.011895815841853619
2024-06-15 20:28:59.137204,-30.722003056515177,8.75021340231128,0.10136809145220217,0.15587124228477478,0.5069428086280823,-0.8487286567687988,-0.003593096975237131,-0.022066179662942886,-0.014577426016330719
2024-06-15 20:28:59.165010,-30.726326566259797,8.72004531052098,0.09857512438094214,0.15308725833892822,0.5076335072517395,-0.8503531813621521,-0.0025172876194119453,-0.021701430901885033,-0.014351993799209595
2024-06-15 20:28:59.183951,-30.730298321262158,8.689851605521293,0.0988341913217266,0.15198110044002533,0.506267249584198,-0.8523960113525391,-0.0046283164992928505,-0.022633489221334457,-0.012130104936659336
2024-06-15 20:28:59.199737,-30.737391472715217,8.662004070501505,0.09633580283884982,0.15346844494342804,0.507285475730896,-0.8473027348518372,-0.004353655036538839,-0.02077244035899639,-0.014001140370965004
2024-06-15 20:28:59.224987,-30.74493883174808,8.631192233381931,0.09295147078553495,0.1536536067724228,0.508808434009552,-0.8490700721740723,-0.004701280500739813,-0.023327860981225967,-0.014269488863646984
2024-06-15 20:28:59.243628,-30.750969888785203,8.602328707723103,0.09461168700152407,0.15059693157672882,0.5072192549705505,-0.8454806208610535,-0.003937709145247936,-0.0225293580442667,-0.010739433579146862
2024-06-15 20:28:59.262328,-30.756061794811448,8.574401771754214,0.09438237540633279,0.1560336798429489,0.5087119936943054,-0.8481938242912292,-0.003313956316560507,-0.02365594543516636,-0.01230617519468069
2024-06-15 20:28:59.285759,-30.761013681959707,8.5389411371308,0.09335429186400704,0.14993269741535187,0.5075716376304626,-0.8491106033325195,-0.004415302071720362,-0.02576303295791149,-0.014884927310049534
2024-06-15 20:28:59.300845,-30.767280380523193,8.507641795259216,0.09291251736292472,0.14610333740711212,0.5094707608222961,-0.8474371433258057,-0.004178484436124563,-0.02382431924343109,-0.012397360056638718
2024-06-15 20:28:59.306429,-30.76935334293629,8.479243576237597,0.09650814505347365,0.1524021476507187,0.5076655149459839,-0.8493261337280273,-0.0020124372094869614,-0.025596054270863533,-0.010255977511405945
2024-06-15 20:28:59.345948,-30.774240343287435,8.44888082405595,0.09693441822679119,0.15111404657363892,0.5073695182800293,-0.8478885889053345,-0.003879561787471175,-0.023965755477547646,-0.013138368725776672
2024-06-15 20:28:59.355723,-30.779643022920915,8.419726161583752,0.09197552746659005,0.1533086597919464,0.5079236030578613,-0.8498923182487488,-0.004717942327260971,-0.025052765384316444,-0.015614980831742287
2024-06-15 20:28:59.381745,-30.784260230799845,8.385662300645604,0.09485599966648425,0.1497674286365509,0.5077091455459595,-0.8491202592849731,-0.00381417921744287,-0.02765262871980667,-0.01345798559486866
2024-06-15 20:28:59.405969,-30.78997368404056,8.352324147306772,0.09107372238263019,0.14760905504226685,0.5094886422157288,-0.847907543182373,-0.003874759888276458,-0.024891279637813568,-0.016346627846360207
2024-06-15 20:28:59.418327,-30.79502802402637,8.317145257986622,0.08744993350196818,0.14658719301223755,0.5108485817909241,-0.848739504814148,-0.003196122357621789,-0.027588535100221634,-0.01644914038479328
2024-06-15 20:28:59.441804,-30.798607043151456,8.28282782627554,0.08970887182760445,0.13913053274154663,0.5110478401184082,-0.8503020405769348,-0.0026832246221601963,-0.02446170337498188,-0.011255688033998013
2024-06-15 20:28:59.465968,-30.804388798283874,8.25965214064804,0.08767622353886453,0.15156544744968414,0.5109358429908752,-0.8473818302154541,-0.003684986848384142,-0.021456634625792503,-0.012909995391964912
2024-06-15 20:28:59.481080,-30.809255308067506,8.22660512412258,0.08421023604041362,0.15040777623653412,0.5102134943008423,-0.8485836982727051,-0.00387575663626194,-0.02560640126466751,-0.016450926661491394
2024-06-15 20:28:59.501932,-30.816307478385543,8.190139597917527,0.08178707301989954,0.14012402296066284,0.5125047564506531,-0.8493576645851135,-0.005061717703938484,-0.024925338104367256,-0.016316138207912445
2024-06-15 20:28:59.525908,-30.823110346798877,8.16224169025261,0.07959450892515273,0.1453249454498291,0.5130077600479126,-0.8486412167549133,-0.004422378726303577,-0.023264797404408455,-0.01334727555513382
2024-06-15 20:28:59.543153,-30.827044535760805,8.131352159731227,0.0811194220285308,0.14626017212867737,0.5080659985542297,-0.851889967918396,-0.004310447257012129,-0.02544298581779003,-0.013648444786667824
2024-06-15 20:28:59.561803,-30.834643121212444,8.099267346105092,0.07458543895291446,0.1440226137638092,0.5108921527862549,-0.8492631316184998,-0.003968196455389261,-0.02360784448683262,-0.017670901492238045
2024-06-15 20:28:59.586071,-30.84062295183079,8.065042121947805,0.07324287989418382,0.14035415649414062,0.5105242729187012,-0.8492321968078613,-0.0033175870776176453,-0.026033390313386917,-0.013567754998803139
2024-06-15 20:28:59.595671,-30.845789989937906,8.034200402750612,0.07772407095909399,0.13785074651241302,0.5112124681472778,-0.8507656455039978,-0.003563536098226905,-0.023958716541528702,-0.009835532866418362
2024-06-15 20:28:59.621871,-30.854870726439437,8.010356212358097,0.0714662636477202,0.14776702225208282,0.5106367468833923,-0.8460584878921509,-0.0054892380721867085,-0.020720576867461205,-0.015078306198120117
2024-06-15 20:28:59.645920,-30.861123764624583,7.9729925162771895,0.07087660621295787,0.14248141646385193,0.511558473110199,-0.8485282063484192,-0.004716009832918644,-0.02842399850487709,-0.015304538421332836
2024-06-15 20:28:59.655768,-30.8664718027447,7.939714980867241,0.07194104850642204,0.1365429311990738,0.5097314715385437,-0.8507753014564514,-0.005398696754127741,-0.02445080317556858,-0.01258161198347807
2024-06-15 20:28:59.681946,-30.873356633428077,7.911823049617848,0.06953983013665926,0.14628469944000244,0.510891854763031,-0.8459526896476746,-0.004045029636472464,-0.025609703734517097,-0.014762048609554768
2024-06-15 20:28:59.700387,-30.87794993564491,7.871355032559168,0.06936503999290908,0.13466542959213257,0.5120363235473633,-0.8503720760345459,-0.0033539903815835714,-0.028549468144774437,-0.015655064955353737
2024-06-15 20:28:59.708453,-30.882843766185225,7.842716049369305,0.0664781111298151,0.13317173719406128,0.5114986300468445,-0.8487845659255981,-0.002662774408236146,-0.020550454035401344,-0.011899430304765701
2024-06-15 20:28:59.741477,-30.886993106106008,7.818099193826932,0.06762782406619865,0.14461912214756012,0.5142337679862976,-0.8491787314414978,-0.0022693055216223,-0.023864062502980232,-0.011146357282996178
2024-06-15 20:28:59.761922,-30.89134052151272,7.782536960139615,0.06611964626030843,0.13489553332328796,0.510725736618042,-0.8494428992271423,-0.005029928870499134,-0.02469884417951107,-0.014097838662564754
2024-06-15 20:28:59.783867,-30.89832780503364,7.756105835598958,0.06379881601542554,0.14217059314250946,0.5134645104408264,-0.8488492369651794,-0.004319984465837479,-0.023272689431905746,-0.011732591316103935
2024-06-15 20:28:59.801173,-30.904939428150215,7.718311837600339,0.06802329468718504,0.14067018032073975,0.5132832527160645,-0.8466471433639526,-0.005569341126829386,-0.031219566240906715,-0.014151141047477722
2024-06-15 20:28:59.825958,-30.91057774931006,7.680575896209665,0.0627714528446138,0.13149800896644592,0.5125476121902466,-0.8518633246421814,-0.0060387528501451015,-0.026259655132889748,-0.01632888987660408
2024-06-15 20:28:59.843944,-30.91814901400502,7.645801695597838,0.06392078558492051,0.1321389526128769,0.5128116607666016,-0.8500913977622986,-0.005414658226072788,-0.027630813419818878,-0.012071097269654274
2024-06-15 20:28:59.856467,-30.922151504858647,7.614080589545005,0.07118199037405148,0.13559822738170624,0.5104366540908813,-0.8503065705299377,-0.0032616746611893177,-0.027304546907544136,-0.009924312122166157
2024-06-15 20:28:59.885709,-30.92922075064961,7.584891776126956,0.06313376636563521,0.1407410055398941,0.5121310353279114,-0.8469195365905762,-0.003293650923296809,-0.02362050488591194,-0.017840765416622162
2024-06-15 20:28:59.903935,-30.936009958684604,7.548305867837783,0.059937871494197326,0.137481227517128,0.515681266784668,-0.846203625202179,-0.0038341486360877752,-0.029177101328969002,-0.016766391694545746
2024-06-15 20:28:59.918137,-30.94006026086242,7.508614784797192,0.06321072605571686,0.12946699559688568,0.5133094787597656,-0.8495404124259949,-0.00487274257466197,-0.029613900929689407,-0.014811956323683262
2024-06-15 20:28:59.951392,-30.943581223379564,7.477157494801053,0.05734131905232144,0.13611577451229095,0.508826494216919,-0.851561427116394,-0.004557276610285044,-0.025889599695801735,-0.01676764339208603
2024-06-15 20:28:59.963892,-30.94886095960798,7.440173727992726,0.05408736423788514,0.13062997162342072,0.5111711621284485,-0.8507439494132996,-0.003146995324641466,-0.02772698365151882,-0.016210008412599564
2024-06-15 20:28:59.981028,-30.95444805434905,7.40529451322241,0.052056987120446374,0.12699444591999054,0.5130559802055359,-0.8494027256965637,-0.003242337144911289,-0.02560090273618698,-0.01421353965997696
2024-06-15 20:29:00.005094,-30.959273582997668,7.375281808235727,0.05058784611349903,0.13531288504600525,0.5141703486442566,-0.848240852355957,-0.0017033026088029146,-0.025684596970677376,-0.013822040520608425
2024-06-15 20:29:00.024081,-30.96132263974867,7.338790668821288,0.05320548943247996,0.13240571320056915,0.5120587348937988,-0.8484185934066772,-0.0008213826804421842,-0.029379839077591896,-0.014540606178343296
2024-06-15 20:29:00.032824,-30.96495630038712,7.303438463450949,0.05026456939142049,0.13124579191207886,0.5105788707733154,-0.8510103821754456,-0.0033847747836261988,-0.028175057843327522,-0.016596850007772446
2024-06-15 20:29:00.065637,-30.970823432884156,7.265723012627784,0.04715738026780682,0.12797915935516357,0.5138592720031738,-0.8485134243965149,-0.00395037280395627,-0.02846047654747963,-0.017444554716348648
2024-06-15 20:29:00.083382,-30.97515718791253,7.227421019309645,0.04732396284537174,0.1213822290301323,0.5145638585090637,-0.8505240678787231,-0.002470102161169052,-0.027804365381598473,-0.013593119569122791
2024-06-15 20:29:00.094178,-30.97991782976403,7.198873389899931,0.04658413129530837,0.12814120948314667,0.5144224762916565,-0.8487754464149475,-0.0031899912282824516,-0.024241594597697258,-0.013384509831666946
2024-06-15 20:29:00.125732,-30.984384773481217,7.164111995892797,0.04389603164019184,0.12892216444015503,0.5132517218589783,-0.849905788898468,-0.002696154871955514,-0.02673017606139183,-0.01598343625664711
