sTimestamp,sRoll,sPitch,sYaw,sAcc_x,sAcc_y,sAcc_z,sGyro_x,sGyro_y,sGyro_z
2024-05-13 17:17:32.540428,0.3847896458675109,0.05291634031087835,170.78797861119838,0.005856720265001059,-0.004084005951881409,-1.0007061958312988,0.0016797668067738414,-0.0017603910528123379,0.0010977117344737053
2024-05-13 17:17:32.572125,0.38500855876649515,0.052735447019578795,170.78799227157674,0.0056454879231750965,-0.004566883202642202,-1.0006719827651978,0.0013638940872624516,-0.00112017965875566,0.0019974932074546814
2024-05-13 17:17:32.589182,0.3853700518644033,0.05265621282314268,170.79072434724475,0.005801835097372532,-0.004150527063757181,-1.0006160736083984,0.00092348363250494,-0.0019938109908252954,0.0018606933299452066
2024-05-13 17:17:32.615332,0.3846924757543969,0.05153846637269398,170.7914620076751,0.005682623013854027,-0.004056224599480629,-1.0008724927902222,0.0005732712452299893,-0.0026211466174572706,0.0019267464522272348
2024-05-13 17:17:32.633812,0.38420996024213255,0.05094791514364572,170.79319687572428,0.005631036125123501,-0.004321749322116375,-1.000514030456543,-0.0002812232996802777,-0.002449848921969533,0.0013808906078338623
2024-05-13 17:17:32.651458,0.384195552811852,0.051258812147853605,170.79431702674816,0.005671883001923561,-0.00407263683155179,-1.000949740409851,0.0007531081209890544,-0.0018537715077400208,0.0013639468234032393
2024-05-13 17:17:32.675810,0.38452446910907045,0.05015022041872897,170.792623139834,0.005624732468277216,-0.004486972466111183,-1.0008070468902588,0.0007770386873744428,-0.002499321708455682,0.0016591582680121064
2024-05-13 17:17:32.693905,0.3842051844457988,0.05077293823691042,170.79187181902532,0.005812104791402817,-0.0038435403257608414,-1.000720739364624,0.0006026619812473655,-0.0016712420620024204,0.001056017354130745
2024-05-13 17:17:32.712093,0.383637691775306,0.05067248309629033,170.7916669133502,0.005501196254044771,-0.004165434744209051,-1.0009398460388184,5.1991024520248175e-05,-0.001422171713784337,0.0018727071583271027
2024-05-13 17:17:32.735833,0.38319679772829635,0.05069574842815068,170.79240457378057,0.005666015204042196,-0.0043506803922355175,-1.0004953145980835,0.0005802488303743303,-0.0016710655763745308,0.0012834254885092378
2024-05-13 17:17:32.753886,0.38273402573160153,0.05083924576673376,170.79461755507165,0.0057478793896734715,-0.004168380051851273,-1.0009498596191406,0.0006554044084623456,-0.0016639606328681111,0.0016371236415579915
2024-05-13 17:17:32.774950,0.38291732026128117,0.050697315903204344,170.79334713988604,0.005564647726714611,-0.004083163570612669,-1.0005699396133423,0.0007528123678639531,-0.0024911221116781235,0.0011815386824309826
2024-05-13 17:17:32.795732,0.3825811735684961,0.051574681716540255,170.7884294036836,0.005885161459445953,-0.004044222645461559,-1.001065969467163,0.0010167215950787067,-0.001718232175335288,0.0016038193134590983
2024-05-13 17:17:32.813977,0.3822102622800526,0.05123742778605765,170.78646230920265,0.005590798798948526,-0.0042259362526237965,-1.000470519065857,0.00026179192354902625,-0.001932225888594985,0.0007870367262512445
2024-05-13 17:17:32.837129,0.3824577499157598,0.05166104625694389,170.78741853568644,0.005458484403789043,-0.004302260000258684,-1.0006794929504395,0.0015765252755954862,-0.000710861524567008,0.001066743629053235
2024-05-13 17:17:32.855985,0.3828560353217362,0.05132969203575902,170.78922170562734,0.005401888862252235,-0.004349749535322189,-1.0006053447723389,0.0014521523844450712,-0.0014296192675828934,0.0007436026353389025
2024-05-13 17:17:32.873941,0.38298223373882273,0.05113081613703529,170.78915340373564,0.005652318242937326,-0.004165781196206808,-1.0005314350128174,0.0009499020525254309,-0.001883246237412095,0.0005281053017824888
2024-05-13 17:17:32.889036,0.3823570313059286,0.05019254558023123,170.7890031395739,0.005694027058780193,-0.004021316766738892,-1.0003434419631958,0.00015236785111483186,-0.0024000341072678566,0.0005441221874207258
2024-05-13 17:17:32.915997,0.38183326785437965,0.0501944098750291,170.78969981886925,0.005617042072117329,-0.004297582432627678,-1.0004308223724365,0.0007232229690998793,-0.002576488070189953,0.00010527105769142509
2024-05-13 17:17:32.933843,0.3816203580513457,0.04982071381707544,170.79113415859493,0.005904467776417732,-0.004264770075678825,-1.0006588697433472,5.491153569892049e-05,-0.0022960486821830273,0.0004291210789233446
2024-05-13 17:17:32.949609,0.3807856609100025,0.04972727229355717,170.79297830967084,0.005620482377707958,-0.004263795912265778,-1.0005854368209839,0.0003298046358395368,-0.0015388107858598232,0.0013403783086687326
2024-05-13 17:17:32.975940,0.3809185827945533,0.05100070903747448,170.7934427625344,0.00590208824723959,-0.00444850092753768,-1.0008223056793213,0.0005263215862214565,-0.000708212552126497,0.00026973464991897345
2024-05-13 17:17:32.994283,0.38119581910574707,0.05048258182601215,170.79389355501962,0.0058293892070651054,-0.00394755695015192,-1.0010548830032349,0.0009214921155944467,-0.0016179508529603481,0.001961246132850647
2024-05-13 17:17:33.017776,0.38202229867574505,0.05050959242273478,170.79263680021234,0.005485905800014734,-0.004445093683898449,-1.0008713006973267,0.00109408563002944,-0.0013990593142807484,0.0018063002498820424
2024-05-13 17:17:33.035946,0.3823954778004363,0.05060124635768121,170.7875004979565,0.005831003189086914,-0.004392247647047043,-1.0013008117675781,0.0019259314285591245,-0.0010593674378469586,0.0019033529097214341
2024-05-13 17:17:33.050759,0.38212269712045893,0.05053128027438155,170.78532849780044,0.005447517614811659,-0.004237365908920765,-1.000676155090332,0.0009245306137017906,-0.0021169628016650677,0.002205068478360772
2024-05-13 17:17:33.077971,0.3814525648494308,0.05043782541065006,170.7862027620142,0.005800613667815924,-0.004164739511907101,-1.0012383460998535,0.0006681373924948275,-0.0018634058069437742,0.0013707102043554187
2024-05-13 17:17:33.095074,0.380786167838105,0.05032588768149854,170.7863393657976,0.005398864857852459,-0.004202498588711023,-1.0009981393814087,0.00021543512411881238,-0.0014166480395942926,0.001594103523530066
2024-05-13 17:17:33.104728,0.38108087982862043,0.050781862839556394,170.7857246487723,0.005581755191087723,-0.004388586618006229,-1.001079797744751,0.0012715684715658426,-0.0010240464471280575,0.002015606965869665
2024-05-13 17:17:33.137947,0.3809947287316284,0.05087571457463126,170.78680381866116,0.005889394786208868,-0.004210632294416428,-1.0004067420959473,0.000426790356868878,-0.0014178038109093904,0.0017416727496311069
2024-05-13 17:17:33.150420,0.38086524862208904,0.05160947966273162,170.78527385628706,0.0056854900903999805,-0.004219559021294117,-1.0010285377502441,0.0006372474017553031,-0.0009242846863344312,0.0006976862787269056
2024-05-13 17:17:33.162863,0.3806884907968885,0.05213165229385372,170.7845361958567,0.005613631568849087,-0.004240319598466158,-1.0004059076309204,7.939946954138577e-05,-0.0009416972170583904,0.0010472172871232033
2024-05-13 17:17:33.197941,0.38006793075819584,0.05228612195781245,170.7868857809312,0.005498026497662067,-0.004194055683910847,-1.0008841753005981,-0.000615075696259737,-0.001190839451737702,0.0017648966750130057
2024-05-13 17:17:33.212283,0.3797851449183014,0.052955613898605924,170.7856290261239,0.005769327748566866,-0.004393185488879681,-1.0005639791488647,0.000812835874967277,-0.0013191851321607828,0.0020130432676523924
2024-05-13 17:17:33.233939,0.37913376898706436,0.05313259850743124,170.78535581855712,0.005739635322242975,-0.004039016552269459,-1.0006308555603027,-4.817121953237802e-05,-0.0015956140123307705,0.00198516808450222
2024-05-13 17:17:33.255052,0.3798873576320136,0.05328917259002584,170.78714532811966,0.0055008381605148315,-0.00448768911883235,-1.0007346868515015,0.0004305090697016567,-0.0018460401333868504,0.00091418472584337
2024-05-13 17:17:33.275047,0.3801737186490517,0.052749911145765487,170.78957687546418,0.005780017003417015,-0.004166078753769398,-1.0004547834396362,0.0005484640132635832,-0.0018814582144841552,0.0011709723621606827
2024-05-13 17:17:33.293134,0.37956353729624626,0.05295991278231694,170.78950857357248,0.005471521057188511,-0.0042881593108177185,-1.0008245706558228,0.0008459105156362057,-0.0007890042033977807,0.0017447019927203655
2024-05-13 17:17:33.307609,0.37969440478796074,0.05304584043073753,170.78888019616883,0.005670700687915087,-0.004194868728518486,-1.0006136894226074,6.739030504832044e-05,-0.0009580565965734422,0.0010485781822353601
2024-05-13 17:17:33.335815,0.3791812601461371,0.05247983852907231,170.78810155460346,0.005642136558890343,-0.004472772125154734,-1.0012505054473877,0.00032227562041953206,-0.0025375671684741974,0.0020029759034514427
2024-05-13 17:17:33.353849,0.37914201323883595,0.05256728029169368,170.78741853568644,0.005712694488465786,-0.004189745523035526,-1.0009361505508423,0.0005625171470455825,-0.0009523522458039224,0.0018971927929669619
2024-05-13 17:17:33.369484,0.3781395495760044,0.05206142607639622,170.7879103093067,0.005784423556178808,-0.004072476644068956,-1.0008279085159302,-0.0003394578816369176,-0.0023562947753816843,0.002121497178450227
2024-05-13 17:17:33.395864,0.3786817225218006,0.05237794598047747,170.78964517735588,0.005407374352216721,-0.0044169132597744465,-1.0014370679855347,0.0009404002921655774,-0.0015077933203428984,0.0014413116732612252
2024-05-13 17:17:33.413916,0.37812106004047774,0.052122957809885836,170.79188547940365,0.005721056368201971,-0.004045304376631975,-1.000535249710083,0.0004881028726231307,-0.0007580111850984395,0.0008113046642392874
2024-05-13 17:17:33.431241,0.3777311256079788,0.05146889049063109,170.79174887562024,0.005654031876474619,-0.004224653355777264,-1.001246690750122,-0.0001970486919162795,-0.0020677298307418823,0.0014726690715178847
2024-05-13 17:17:33.455677,0.37688602310032193,0.051362498955126894,170.7914893284318,0.005640456452965736,-0.004202510695904493,-1.000691294670105,0.00035681817098520696,-0.0016655726358294487,0.0018598476890474558
2024-05-13 17:17:33.473674,0.37661436299825524,0.05094480353891153,170.79101121518988,0.005718949716538191,-0.0041912877932190895,-1.0011667013168335,0.0008912699995562434,-0.0023635374382138252,0.0011812433367595077
2024-05-13 17:17:33.493641,0.3757195548561307,0.05154576013427348,170.78816985649516,0.005392891354858875,-0.004264443181455135,-1.0006299018859863,0.000976653303951025,-0.0006382635328918695,0.00031287892488762736
2024-05-13 17:17:33.515911,0.3768223369223968,0.051396799978375714,170.78638034693262,0.005567478481680155,-0.0041877334006130695,-1.0014013051986694,0.0005964160664007068,-0.0018673898885026574,0.0010753058595582843
2024-05-13 17:17:33.533121,0.3763447306085984,0.051549145213378736,170.7798916672211,0.005472246091812849,-0.0042597344145178795,-1.0009279251098633,-3.397275577299297e-06,-0.0020009162835776806,0.0017830806318670511
2024-05-13 17:17:33.556274,0.3759119740916546,0.05181837739663889,170.77409966680494,0.005813293159008026,-0.0039947256445884705,-1.001076340675354,0.00010650246986187994,-0.0006102928309701383,0.0010789521038532257
2024-05-13 17:17:33.575502,0.37536929421775594,0.051822636259710224,170.77114902508347,0.005558147095143795,-0.004183328710496426,-1.0005536079406738,0.00010942994413198903,-0.0012790232431143522,0.0008978418773040175
2024-05-13 17:17:33.593149,0.37570618796248156,0.0516151159028182,170.76899068530577,0.005653691478073597,-0.004151010420173407,-1.00077486038208,0.0010177631629630923,-0.002466683741658926,0.0005476304213516414
2024-05-13 17:17:33.609437,0.375412729952009,0.05169030801464784,170.76732411914827,0.0059942216612398624,-0.004304384812712669,-1.0009123086929321,0.0008294367580674589,-0.0018272250890731812,0.0024761203676462173
2024-05-13 17:17:33.635946,0.3757894042125646,0.05202162221519305,170.76724215687824,0.005831560119986534,-0.004200126510113478,-1.0006873607635498,0.0011851910967379808,-0.001268018502742052,0.0016777595737949014
2024-05-13 17:17:33.653670,0.3767703100908284,0.051713083093672264,170.76446910007522,0.005878613796085119,-0.004344310145825148,-1.0010517835617065,0.0016683269059285522,-0.0020092595368623734,0.001421140506863594
2024-05-13 17:17:33.677082,0.3758752351444394,0.05202444367028964,170.76061687338333,0.005744730122387409,-0.004609077703207731,-1.000397801399231,0.0002563151647336781,-0.0013414721470326185,0.0018233914161100984
2024-05-13 17:17:33.695100,0.37503504183524844,0.05178142834106537,170.75584940134266,0.00593307800590992,-0.004134687129408121,-1.0011658668518066,0.00042810654849745333,-0.0016316298861056566,0.0010932147270068526
2024-05-13 17:17:33.712505,0.3748780808864704,0.052110788200373445,170.75068577833014,0.005868433974683285,-0.004023345652967691,-1.000544548034668,0.0012511586537584662,-0.0014328111428767443,0.0013992520980536938
2024-05-13 17:17:33.737009,0.37464473387677927,0.05247772410527651,170.74691551390828,0.005989301949739456,-0.004275971557945013,-1.0010088682174683,0.0011717589804902673,-0.0019215847132727504,0.001011393964290619
2024-05-13 17:17:33.755877,0.37424570141886243,0.05271829150537443,170.74407415521355,0.005948021076619625,-0.004111564718186855,-1.0006890296936035,0.000814888917375356,-0.0010959053179249167,0.0011837866622954607
2024-05-13 17:17:33.765475,0.3753060882875069,0.05223603612726789,170.73919740014617,0.005516445729881525,-0.0043875230476260185,-1.0010349750518799,0.000675890245474875,-0.0020378639455884695,0.0005796431214548647
2024-05-13 17:17:33.796967,0.37539986998646235,0.052200241000138134,170.73126072033062,0.00578687246888876,-0.004271169658750296,-1.000644326210022,0.0007323523750528693,-0.0013611745089292526,0.002025378169491887
2024-05-13 17:17:33.815814,0.3759926557012254,0.05246357680915386,170.72227219138287,0.005771949887275696,-0.004139602649956942,-1.0011605024337769,0.0017155868699774146,-0.0005999706918373704,0.0013511271681636572
2024-05-13 17:17:33.825544,0.3751350934344186,0.05305847361265941,170.71705392685698,0.005668189842253923,-0.0041341353207826614,-1.0010080337524414,0.0001636743836570531,-0.001057267072610557,0.0011209568474441767
2024-05-13 17:17:33.857480,0.37505182382348257,0.052956127496815,170.71307875676004,0.005534931551665068,-0.0041658105328679085,-1.0010175704956055,0.0008912712801247835,-0.0016156439669430256,0.0005838992074131966
2024-05-13 17:17:33.875313,0.3750008375285455,0.051432815219023646,170.70911724704143,0.005459584295749664,-0.004526800941675901,-1.0011025667190552,-0.0003613207954913378,-0.002417784184217453,-0.000174011685885489
2024-05-13 17:17:33.899935,0.37415461444297793,0.051447032551265724,170.70546992602465,0.005648506339639425,-0.004163020756095648,-1.0005360841751099,0.0003079253656323999,-0.0018717936472967267,0.0007357317954301834
2024-05-13 17:17:33.917916,0.3740968246392973,0.05060553857128561,170.70079807663237,0.005434251390397549,-0.004227397032082081,-1.0010557174682617,0.0005448831361718476,-0.0019047367386519909,0.0014130240306258202
2024-05-13 17:17:33.931933,0.3745583426559492,0.05093329093490035,170.70216411446634,0.005664274096488953,-0.004257591906934977,-1.0005769729614258,0.0015550999669358134,-0.0018220858182758093,0.0018399348482489586
2024-05-13 17:17:33.953790,0.3744411355425747,0.05196171465266329,170.69963694447344,0.005524415988475084,-0.004291025456041098,-1.001136064529419,0.0008357202168554068,-0.0007421678164973855,0.00023418001364916563
2024-05-13 17:17:33.977947,0.37417515837134085,0.05149215248743814,170.69631747253683,0.005688948091119528,-0.004488765262067318,-1.0004383325576782,0.000929538975469768,-0.0014082140987738967,0.0006607237737625837
2024-05-13 17:17:33.993576,0.37364443132848973,0.05188792993332864,170.69358539686883,0.005537346005439758,-0.004168430808931589,-1.000722885131836,0.0012958281440660357,-0.0016171021852642298,0.0014110556803643703
2024-05-13 17:17:34.013863,0.3730659463223014,0.05138212574383077,170.6888998870982,0.005481723230332136,-0.0043329643085598946,-1.0007790327072144,0.0009202954825013876,-0.00153830973431468,0.00067160400794819
2024-05-13 17:17:34.037930,0.3733909139164059,0.051748828195002435,170.68230192435996,0.0058842673897743225,-0.0040695578791201115,-1.0006612539291382,0.001515635522082448,-0.001894645974971354,0.001528037479147315
2024-05-13 17:17:34.047383,0.3734434476760768,0.05221178028457575,170.67239815006343,0.005610440392047167,-0.004273900296539068,-1.0011265277862549,0.0009222156368196011,-0.0014817246701568365,0.00165658222977072
2024-05-13 17:17:34.073775,0.3736368807678057,0.052668632561652995,170.66906501774847,0.005844586528837681,-0.004150846507400274,-1.0006736516952515,0.00042888260213658214,-0.0012106440262869,0.0009501597960479558
2024-05-13 17:17:34.097869,0.37325513722622544,0.053503779935192425,170.67110041412113,0.005709457211196423,-0.0039727212861180305,-1.0009534358978271,-0.0001814674906199798,-0.0009209949057549238,0.00151884276419878
2024-05-13 17:17:34.118784,0.37316967982032095,0.05293553020759918,170.66787656483288,0.005662208888679743,-0.004357615020126104,-1.0009026527404785,0.0003735210048034787,-0.0018999020103365183,0.0015240117209032178
2024-05-13 17:17:34.133933,0.37331359404056724,0.05377053750889977,170.66503520613816,0.006145491264760494,-0.004340321756899357,-1.0007513761520386,0.0015161782503128052,-0.0009578774333931506,0.0020973030477762222
2024-05-13 17:17:34.155736,0.37367535394273993,0.054254056872209154,170.66011746993576,0.005861596204340458,-0.004151360131800175,-1.0010441541671753,0.0006252484163269401,-0.0008325425442308187,0.001683426322415471
2024-05-13 17:17:34.175845,0.373632104971472,0.053932794522327236,170.65708486594428,0.005838111508637667,-0.004256971646100283,-1.0004605054855347,0.0010525790276005864,-0.0017674448899924755,0.0018450005445629358
2024-05-13 17:17:34.193933,0.37334601075869833,0.053174710225521934,170.654462073303,0.005877024494111538,-0.00434151291847229,-1.0009628534317017,0.001054709660820663,-0.0020219343714416027,0.001616059336811304
2024-05-13 17:17:34.212234,0.3738733227069645,0.0529207759317749,170.65071912963782,0.0060911839827895164,-0.004354300908744335,-1.0009187459945679,0.0005205689813010395,-0.002111719222739339,0.000999092124402523
2024-05-13 17:17:34.235931,0.37350430572879867,0.05285840376485225,170.64765920488966,0.005941665265709162,-0.003988085314631462,-1.0010055303573608,0.0015145170036703348,-0.0021714346949011087,0.0015501925954595208
2024-05-13 17:17:34.253521,0.373786131073341,0.0531616334815104,170.64619754440727,0.005641785450279713,-0.004371666349470615,-1.000895380973816,0.00026220723520964384,-0.001354961539618671,0.0013767946511507034
2024-05-13 17:17:34.277976,0.37349035186576773,0.05312744918512728,170.6450090914917,0.005861998535692692,-0.004122425336390734,-1.0006828308105469,0.0006909170188009739,-0.0013456442393362522,0.0022920826449990273
2024-05-13 17:17:34.295808,0.3734420336134752,0.05294687939399838,170.64017331755932,0.005543896462768316,-0.004244966898113489,-1.001112699508667,0.00034106586826965213,-0.0017913066549226642,0.0020085505675524473
2024-05-13 17:17:34.305958,0.37329219633855804,0.052595311414727834,170.6384657702668,0.005866768769919872,-0.0042976331897079945,-1.0006201267242432,-0.00011453911429271102,-0.0016973984893411398,0.0007402964401990175
2024-05-13 17:17:34.337492,0.37349171256751645,0.05188545532377583,170.6372363362162,0.005755148828029633,-0.004267759155482054,-1.0011605024337769,0.0003814864903688431,-0.0025300660636276007,0.0012637802865356207
2024-05-13 17:17:34.355804,0.3732040442095826,0.051650594199883916,170.6323186000138,0.005538225639611483,-0.00427253870293498,-1.000777006149292,0.00011920335964532569,-0.0022651180624961853,0.0009731005411595106
2024-05-13 17:17:34.368513,0.37354974249503514,0.05142060558887159,170.62854833559197,0.005617080256342888,-0.004067588597536087,-1.0008180141448975,0.00044129654997959733,-0.0022495232988148928,0.0009563805651850998
2024-05-13 17:17:34.397049,0.3728317988998169,0.05189153179089876,170.62632169392253,0.005415471736341715,-0.004335148725658655,-1.0004855394363403,-0.0003287596919108182,-0.0008906442672014236,0.0012567952508106828
2024-05-13 17:17:34.415931,0.3721980854108866,0.05198438968008854,170.62395844846972,0.005721462890505791,-0.0040892018005251884,-1.0007095336914062,0.00022835667186882347,-0.0011776211904361844,0.0009211674332618713
2024-05-13 17:17:34.431102,0.37171015377205385,0.053383634639855654,170.62271535404076,0.0056570228189229965,-0.004238795023411512,-1.0008258819580078,0.00015509227523580194,-0.00046609636046923697,0.00106812734156847
2024-05-13 17:17:34.456991,0.371730590978711,0.05247196780327092,170.6230978446343,0.005760657135397196,-0.004255898296833038,-1.0007678270339966,0.0011794989695772529,-0.001714095240458846,0.0019373961258679628
2024-05-13 17:17:34.475811,0.3708246304183323,0.05198517675266868,170.62141761809846,0.005944869481027126,-0.0039907172322273254,-1.0010687112808228,0.0010672772768884897,-0.0027681849896907806,0.00024987495271489024
2024-05-13 17:17:34.493396,0.3712021050916813,0.051973000473049674,170.62139029734178,0.005590905901044607,-0.004320559557527304,-1.0010197162628174,0.0019729991909116507,-0.0021962409373372793,0.0020327933598309755
2024-05-13 17:17:34.517094,0.3715992699197469,0.051923551637686506,170.62169082566527,0.005934305023401976,-0.0042289989069104195,-1.000793218612671,0.001648200792260468,-0.0022709090262651443,0.001995260827243328
2024-05-13 17:17:34.535113,0.3709897822580291,0.05058200310010749,170.61886312734887,0.0056693824008107185,-0.004134804010391235,-1.0011484622955322,0.0007040349300950766,-0.0028326530009508133,0.0013683079741895199
2024-05-13 17:17:34.546216,0.37216070613343666,0.05113242029767531,170.61028440975136,0.005782736465334892,-0.004317141138017178,-1.0010535717010498,0.0011960659176111221,-0.0020901733078062534,0.0008400359656661749
2024-05-13 17:17:34.576926,0.3720874150019913,0.05125330263979264,170.60807142846025,0.005818828009068966,-0.004107634536921978,-1.0009965896606445,0.0008269178797490895,-0.0018060681177303195,-3.327330341562629e-05
2024-05-13 17:17:34.594874,0.37211732376003653,0.051276001012591034,170.609587730456,0.005738585256040096,-0.004425992723554373,-1.0012327432632446,0.0011448324657976627,-0.0017649302026256919,0.001221010577864945
2024-05-13 17:17:34.605126,0.37264127397457053,0.051687036327354975,170.60935550402422,0.005892725195735693,-0.004199387971311808,-1.0007621049880981,0.0018477144185453653,-0.0013522501103579998,0.0009996250737458467
2024-05-13 17:17:34.636922,0.37314844220087046,0.05254376149578209,170.60954674932097,0.005714395549148321,-0.004152692388743162,-1.001328706741333,0.0006841630092822015,-0.0012055947445333004,0.0017844266258180141
2024-05-13 17:17:34.655867,0.37306567951803693,0.052029986528883666,170.60763429635338,0.005751528311520815,-0.00406945263966918,-1.0003654956817627,0.0010046963579952717,-0.0015111796092242002,0.0016752327792346478
2024-05-13 17:17:34.673931,0.37300946385951655,0.05231217205918304,170.60260727712426,0.005622338503599167,-0.004210341721773148,-1.001375436782837,0.0001464710512664169,-0.0007435602601617575,0.001139203435741365
2024-05-13 17:17:34.684995,0.373267570304949,0.052495333186730456,170.59816765416375,0.005634702742099762,-0.004356634337455034,-1.0003817081451416,0.000996910035610199,-0.0020224505569785833,0.0014941422268748283
2024-05-13 17:17:34.715145,0.3727364163752747,0.05236094054367186,170.59439738974189,0.00566687760874629,-0.004033936187624931,-1.0009368658065796,0.0007709052297286689,-0.001713255769573152,0.00031547050457447767
2024-05-13 17:17:34.730493,0.37337359831964284,0.05184684541165609,170.59083203099516,0.005666691809892654,-0.004429899156093597,-1.0003453493118286,0.000746294332202524,-0.0018582931952551007,0.00033268306287936866
2024-05-13 17:17:34.743699,0.37321719765982014,0.05224471060091594,170.5881272760838,0.005974879022687674,-0.0041852365247905254,-1.0008503198623657,-8.052562770899385e-05,-0.0015679409261792898,0.0007377732545137405
2024-05-13 17:17:34.776362,0.3732040442095826,0.052489463492912475,170.58595527592777,0.005940052680671215,-0.0043803006410598755,-1.0006723403930664,0.0007329190848395228,-0.0015016007237136364,0.0025335769169032574
2024-05-13 17:17:34.791064,0.3732278965108247,0.052036773362360705,170.57422101093368,0.005841451231390238,-0.004255766049027443,-1.0000813007354736,0.000664789229631424,-0.002394957235082984,0.001393535640090704
2024-05-13 17:17:34.817926,0.37263508411563523,0.05216274833087579,170.57443957698712,0.005912537686526775,-0.004173038061708212,-1.0008870363235474,0.0004068345879204571,-0.0015247962437570095,0.0007316270493902266
2024-05-13 17:17:34.834984,0.37220408850683684,0.052724054477486626,170.57635202995473,0.005814663600176573,-0.004185317549854517,-1.0000776052474976,0.0005868423613719642,-0.0009488857467658818,0.0009691379964351654
2024-05-13 17:17:34.840654,0.3718761593853969,0.05285758000668575,170.5757919544428,0.005923287943005562,-0.004333821590989828,-1.0009340047836304,0.00020432291785255075,-0.001214936375617981,0.0005987142212688923
2024-05-13 17:17:34.877323,0.37198504220572043,0.052534983635481564,170.57360629390837,0.0059669725596904755,-0.004175056237727404,-1.0002915859222412,0.000892957323230803,-0.0017389750573784113,0.0008835565531626344
2024-05-13 17:17:34.886767,0.37260808352407254,0.05276457537515052,170.56915301056952,0.005961643066257238,-0.004374970216304064,-1.0005089044570923,0.0014956381637603045,-0.001869882456958294,0.000654969597235322
2024-05-13 17:17:34.899678,0.3728482340425072,0.052682699816496315,170.56506855744587,0.005973855033516884,-0.004292524419724941,-1.0009534358978271,0.001155027188360691,-0.00039810079033486545,0.0008109869086183608
2024-05-13 17:17:34.937870,0.3739013104743057,0.053178508851237094,170.5617354251309,0.005863186903297901,-0.004247788339853287,-1.0004808902740479,0.0008976580575108528,-0.0012061453890055418,0.0008169399807229638
2024-05-13 17:17:34.947140,0.37411320642113477,0.05292644552239453,170.55946780232645,0.005706191062927246,-0.0043589873239398,-1.0011473894119263,0.0015701785450801253,-0.0003697524080052972,0.0007310574292205274
2024-05-13 17:17:34.973906,0.3744483659381414,0.05276635295856244,170.5574733870888,0.005693982820957899,-0.004465320147573948,-1.0005522966384888,0.0005829374422319233,-0.0014817191986367106,0.0010533967288210988
2024-05-13 17:17:34.994279,0.37436141442835597,0.053350384158398115,170.55568387752626,0.005577801261097193,-0.00384758529253304,-1.000773310661316,0.0007075130706652999,-0.00131143385078758,0.0020773615688085556
2024-05-13 17:17:35.000312,0.37427766456974393,0.05331405875779276,170.5552877265544,0.0053034583106637,-0.004210452549159527,-1.0004812479019165,0.00031205048435367644,-0.0013730814680457115,0.001466109068132937
2024-05-13 17:17:35.033589,0.37358770874186686,0.05351366169813712,170.54922251857144,0.005513339303433895,-0.004149953369051218,-1.0004923343658447,-0.00018911209190264344,-0.0012096692807972431,0.0008266763179562986
2024-05-13 17:17:35.055862,0.37328768734648876,0.053827236750149464,170.54478289561092,0.005323502235114574,-0.003960021771490574,-1.0003812313079834,0.00025370263028889894,-0.0011067138984799385,0.0007827000226825476
2024-05-13 17:17:35.075881,0.3725428498814136,0.053887551189182516,170.54132681989088,0.0054399799555540085,-0.004139791242778301,-1.000259518623352,0.00035048488643951714,-0.0019141335505992174,0.001710033742710948
2024-05-13 17:17:35.093088,0.37299222830403284,0.05343401729014441,170.53662764974192,0.005875628441572189,-0.00406681839376688,-1.0006133317947388,0.0005327493418008089,-0.001837067655287683,0.0010485404636710882
2024-05-13 17:17:35.109342,0.37257259855690017,0.054328138411288,170.53202410224134,0.005511560011655092,-0.004290746990591288,-1.0007781982421875,0.00042191764805465937,-0.0006543972995132208,0.0004989536828361452
2024-05-13 17:17:35.135847,0.3722065164256434,0.05458995677104965,170.53082198894742,0.005905038211494684,-0.004056056495755911,-1.000580072402954,0.0004737812269013375,-0.0016772946109995246,0.0017510917969048023
2024-05-13 17:17:35.153577,0.3724172117532824,0.05497476856167111,170.52942863035673,0.005782521329820156,-0.004305978771299124,-1.0009355545043945,0.0010673536453396082,-0.0005652565159834921,0.001610398292541504
2024-05-13 17:17:35.169964,0.3721629472892581,0.05520671818402718,170.5266828943104,0.005919122137129307,-0.004219236318022013,-1.0005220174789429,0.00042276259046047926,-0.0014398113125935197,0.0015393034555017948
2024-05-13 17:17:35.181068,0.37136514917768887,0.05508217395338022,170.527270290579,0.006080565508455038,-0.0041153510101139545,-1.0015255212783813,6.877841951791197e-05,-0.0013643141137436032,0.0010553932515904307
2024-05-13 17:17:35.213081,0.3717089531528638,0.054789883211564666,170.52354100729218,0.00604055542498827,-0.004415375180542469,-1.0005744695663452,0.0004886604729108512,-0.0009745835559442639,0.0008654850535094738
2024-05-13 17:17:35.229565,0.37238719627353134,0.055237887592221965,170.52482508285615,0.005886114668101072,-0.0040321554988622665,-1.001379132270813,0.0009385572629980743,-0.001628431724384427,0.0023898885119706392
2024-05-13 17:17:35.255925,0.3723519247497706,0.055732002419883464,170.5231038751853,0.005819904617965221,-0.004369293339550495,-1.0008968114852905,0.0012946631759405136,-0.0005537784309126437,0.0008917851373553276
2024-05-13 17:17:35.272982,0.3730101308701777,0.05492148441500642,170.5227213845918,0.005931193940341473,-0.004153780173510313,-1.000995397567749,0.0011811715085059404,-0.0014292423147708178,0.0005764613160863519
2024-05-13 17:17:35.297985,0.37217986267962444,0.05502838954871968,170.5185003276847,0.005758525803685188,-0.004389003850519657,-1.0007236003875732,0.0001309574581682682,-0.0011398748029023409,0.0018374919891357422
2024-05-13 17:17:35.315905,0.372790951166929,0.054604147422865276,170.51437489342604,0.006028077565133572,-0.0042812516912817955,-1.0009541511535645,0.0016021726187318563,-0.0019702340941876173,0.0019408668158575892
2024-05-13 17:17:35.326575,0.37295794395605053,0.05462368083007659,170.51083685543597,0.00580541230738163,-0.003946349024772644,-1.0006589889526367,0.0010879317997023463,-0.0013593934709206223,0.0002529226476326585
2024-05-13 17:17:35.357163,0.37294505731007743,0.0540712292499923,170.50841896846978,0.005379484035074711,-0.004154287278652191,-1.000639796257019,0.0007506283582188189,-0.0009720189846120775,0.0016569471918046474
2024-05-13 17:17:35.375241,0.3728677907950917,0.053845656249556687,170.50524976069488,0.005412115715444088,-0.004167934879660606,-1.0004982948303223,9.734990453580394e-05,-0.0017961469711735845,0.0007016588351689279
2024-05-13 17:17:35.386638,0.3732492141715546,0.05329433858759633,170.50523610031655,0.00530003197491169,-0.0041576651856303215,-1.0005160570144653,0.0002948156325146556,-0.0020731831900775433,0.001226839143782854
2024-05-13 17:17:35.417923,0.37315263102782237,0.05442240035791947,170.50464870404792,0.005375821143388748,-0.004067659843713045,-1.0006791353225708,0.00022208981681615114,-0.0012194346636533737,0.001468260190449655
2024-05-13 17:17:35.431973,0.37371713549055335,0.05482959035622198,170.50355587378073,0.005392041523009539,-0.004135787952691317,-1.0005582571029663,0.0011669743107631803,-0.001350950333289802,0.0013456485467031598
2024-05-13 17:17:35.453884,0.37344969089586505,0.05495449143757264,170.50004515654734,0.005601472221314907,-0.004255898762494326,-1.0007755756378174,0.0008803679957054555,-0.0019127156119793653,0.0019586505368351936
2024-05-13 17:17:35.477940,0.3738166534811945,0.05475092311884783,170.4967530053674,0.00576876662671566,-0.004010102245956659,-1.0004276037216187,0.001053208950906992,-0.0017182198353111744,0.0013344172621145844
2024-05-13 17:17:35.493609,0.37403708716448614,0.05495071282217731,170.49523670337166,0.005421346519142389,-0.004403084982186556,-1.0008132457733154,0.0014138439437374473,-0.0015581367770209908,0.0009681279771029949
2024-05-13 17:17:35.513769,0.37473147194315315,0.054078626398224285,170.49467662785972,0.005656166933476925,-0.0041878665797412395,-1.0008231401443481,0.0013261119602248073,-0.0024539916776120663,0.0009866193868219852
2024-05-13 17:17:35.537926,0.37557588075972237,0.054511816472097796,170.4895539859822,0.005574818700551987,-0.004043158609420061,-1.0008243322372437,0.0014759511686861515,-0.0017491127364337444,0.0006175077287480235
2024-05-13 17:17:35.547722,0.3755184911624384,0.055182132171057774,170.48436304221298,0.00596855953335762,-0.004401117097586393,-1.0007489919662476,0.00040232413448393345,-0.0014872776810079813,0.0013542765518650413
2024-05-13 17:17:35.573757,0.3761947866119755,0.05601134648476641,170.48231398546199,0.005848868750035763,-0.004211219027638435,-1.0010288953781128,0.0014927786542102695,-0.0010475199669599533,0.002054397016763687
2024-05-13 17:17:35.598013,0.37627183968354966,0.055278375139352805,170.4796911928207,0.005880339071154594,-0.004249431658536196,-1.0007777214050293,0.00015046914631966501,-0.0016856524161994457,0.00192638102453202
2024-05-13 17:17:35.609120,0.3758989540435493,0.054791650789816675,170.480264928711,0.005992437247186899,-0.004122600425034761,-1.0010650157928467,0.0002798854256980121,-0.0025940274354070425,0.0014577704714611173
2024-05-13 17:17:35.618413,0.37555587043988836,0.05492869146519997,170.48313360816238,0.005795183125883341,-0.004170308355242014,-1.0011087656021118,0.0011162346927449107,-0.001730970456264913,0.0007461401401087642
2024-05-13 17:17:35.657602,0.3752861580089522,0.05465038126684178,170.4816036457883,0.005743715446442366,-0.0042763990350067616,-1.0009709596633911,-0.0001958533248398453,-0.000821851659566164,-0.00019161449745297432
2024-05-13 17:17:35.666745,0.3755063782488322,0.054210504411090404,170.47667224920755,0.005830808542668819,-0.004274209029972553,-1.001387596130371,0.0010148511501029134,-0.0015676581533625722,0.0009152191923931241
2024-05-13 17:17:35.699678,0.37499011199711446,0.053099398051773286,170.47542915477862,0.0055069271475076675,-0.004182185512036085,-1.0005569458007812,0.0007797158905304968,-0.0031144805252552032,0.001068601617589593
2024-05-13 17:17:35.713146,0.37552614844482823,0.05401533375658927,170.47419972072802,0.005784713197499514,-0.004067738074809313,-1.0010870695114136,0.0014363242080435157,-0.0014863305259495974,-0.00010676444799173623
2024-05-13 17:17:35.723676,0.3755364204090097,0.053546315205052944,170.4733117961359,0.005504282657057047,-0.0042743561789393425,-1.0007015466690063,0.0007427245145663619,-0.0015987390652298927,0.0014518052339553833
2024-05-13 17:17:35.753893,0.37489734415436393,0.05297448363020941,170.47193209792357,0.005465352442115545,-0.0042978511191904545,-1.0011682510375977,-7.507763803005219e-05,-0.002245986368507147,0.0018641105853021145
2024-05-13 17:17:35.777921,0.37505641285683117,0.052944521511311265,170.46756077685475,0.005629952065646648,-0.004184153396636248,-1.0004209280014038,0.0003549706016201526,-0.0017980638658627868,0.0015601827763020992
2024-05-13 17:17:35.794978,0.37557753494616203,0.052927899605635806,170.45939187060742,0.005493968725204468,-0.004306788556277752,-1.000577688217163,0.0010550857987254858,-0.0005130894132889807,0.0011336454190313816
2024-05-13 17:17:35.813489,0.37614748221588784,0.05312035552674612,170.45271194559916,0.0055054049007594585,-0.004086711443960667,-1.0006664991378784,0.0008836386841721833,-0.0019125338876619935,0.0002851224853657186
2024-05-13 17:17:35.837184,0.3763743192015263,0.05307114681522095,170.45145519079188,0.005772013682872057,-0.004241551738232374,-1.0008951425552368,0.0006456293631345034,-0.0012448378838598728,0.00042007918818853796
2024-05-13 17:17:35.855857,0.37629027585822344,0.05362690009807785,170.4524933795457,0.00587945943698287,-0.004245924297720194,-1.0007519721984863,0.0007616162765771151,-0.000793786603026092,-0.00028238847153261304
2024-05-13 17:17:35.873320,0.37702508148295516,0.053913671326672526,170.44858651134047,0.00565877091139555,-0.0045901453122496605,-1.001006007194519,0.0009506138158030808,-0.0008025495335459709,-0.00019799108849838376
2024-05-13 17:17:35.887734,0.3775129864413615,0.053623168173428805,170.44320432227448,0.005795902106910944,-0.004431167617440224,-1.0007514953613281,0.0017730571562424302,-0.0017525270814076066,0.0008434316841885448
2024-05-13 17:17:35.915720,0.37716723479505604,0.05408081752824611,170.43917451066417,0.006115139927715063,-0.004211731720715761,-1.0005803108215332,0.0015960163436830044,-0.001864106161519885,0.0012918508145958185
2024-05-13 17:17:35.933848,0.37822988949994835,0.05405857272269729,170.43801337850527,0.005812172777950764,-0.004430396016687155,-1.0009042024612427,0.0022587936837226152,-0.001046772114932537,0.0009565355721861124
2024-05-13 17:17:35.949594,0.3783173746182627,0.055135421414458555,170.43845051061217,0.005766106303781271,-0.004105867352336645,-1.0007045269012451,0.0017631384544074535,0.00043524918146431446,0.002279876731336117
2024-05-13 17:17:35.975922,0.3791235503837358,0.05538966920321633,170.4357730764575,0.005491690710186958,-0.004271048586815596,-1.0011205673217773,0.0012759262463077903,-0.000768873724155128,0.0011028510052710772
2024-05-13 17:17:35.993094,0.37869228797067295,0.05574615972116604,170.43308198192454,0.005778846796602011,-0.004365254193544388,-1.0007785558700562,0.0008331852732226253,-0.000724170939065516,0.0009542294428683817
2024-05-13 17:17:36.017169,0.3789044774021929,0.05605887099437221,170.4308553402551,0.005584650207310915,-0.004095491021871567,-1.001259446144104,0.000902704952750355,-0.001434517209418118,0.0016193166375160217
2024-05-13 17:17:36.035596,0.37889308486010076,0.05554007010214214,170.42734462302172,0.0054827905260026455,-0.004342685919255018,-1.0007967948913574,0.0006848778575658798,-0.0017333722207695246,0.0007426339434459805
2024-05-13 17:17:36.045678,0.3795555064878862,0.055981264303949264,170.42797300042537,0.005592187866568565,-0.004018401261419058,-1.001062273979187,0.001342257484793663,-0.0012998580932617188,0.0010010070400312543
2024-05-13 17:17:36.077064,0.37958640242170993,0.056211849889503306,170.43160666106382,0.005295165348798037,-0.004432781133800745,-1.0009993314743042,0.0009981022449210286,-0.00098450668156147,0.0007730123470537364
2024-05-13 17:17:36.096045,0.38005965982599776,0.057496058855597935,170.43722107656157,0.005518878810107708,-0.004339400678873062,-1.0006153583526611,0.0014724819920957088,-8.893107587937266e-05,0.0009087277576327324
2024-05-13 17:17:36.104626,0.3801477319136939,0.05715442933517829,170.44384636005648,0.0054156179539859295,-0.004537457134574652,-1.0014086961746216,0.00026606599567458034,-0.001057728542946279,0.0011839475482702255
2024-05-13 17:17:36.137893,0.38024826376054005,0.056517033947398584,170.45238409651898,0.005577658768743277,-0.004393544048070908,-1.0006059408187866,0.0008685938664712012,-0.0018233895534649491,0.0012462965678423643
2024-05-13 17:17:36.155814,0.3799960003284991,0.05752818208903815,170.46165949341187,0.005464803893119097,-0.003914488945156336,-1.0010660886764526,0.0008039204403758049,3.3958262065425515e-05,0.0013946887338533998
2024-05-13 17:17:36.173926,0.38016219270482726,0.057286263992351434,170.4699923241993,0.0055030337534844875,-0.004246050957590342,-1.000806450843811,0.0009369676699861884,-0.0012410562485456467,0.0005182141903787851
2024-05-13 17:17:36.186962,0.3805852108661185,0.05842976705947983,170.47878960785025,0.00548671605065465,-0.004229457583278418,-1.0009018182754517,0.00122511584777385,-0.0004483400844037533,0.0012245153775438666
2024-05-13 17:17:36.215161,0.38103125423543205,0.05703606162325344,170.48809232549982,0.005834346637129784,-0.004136709030717611,-1.000959873199463,0.0013136754278093576,-0.002267597708851099,0.0013848866801708937
2024-05-13 17:17:36.230706,0.3807189064830362,0.05683368391855876,170.49820100547143,0.005853920243680477,-0.003706676419824362,-0.9993406534194946,0.0010246011661365628,-0.000830129545647651,0.000580556457862258
2024-05-13 17:17:36.243615,0.3726083770087634,0.06664707827049358,170.51179308191976,-0.000725014484487474,-0.007504540495574474,-1.0965867042541504,-0.005266510881483555,0.010865701362490654,0.0008724481449462473
2024-05-13 17:17:36.275476,0.3754044857002374,0.08083986452023628,170.51860961071142,0.005185313057154417,-0.002523591974750161,-1.0382159948349,0.0026717951986938715,0.008399585261940956,-0.0008185915648937225
2024-05-13 17:17:36.291042,0.3749895517081591,0.09332437643585517,170.51882817676488,0.005348151549696922,-0.0032839402556419373,-1.0114573240280151,0.001204541651532054,0.009937628172338009,0.0023102895356714725
2024-05-13 17:17:36.317898,0.38067304282997666,0.1034742042951594,170.51682010114888,0.013573193922638893,-0.0033123642206192017,-1.0062226057052612,0.004102226812392473,0.004148857202380896,-0.0001609559403732419
2024-05-13 17:17:36.335786,0.37997449590478416,0.11407288363866057,170.5069299872307,0.005717538297176361,-0.00510299252346158,-0.9937549829483032,3.4667536965571344e-05,0.009989145211875439,0.0013831369578838348
2024-05-13 17:17:36.353919,0.38680364453816557,0.13130168897447395,170.49367942024088,0.004670538939535618,-0.010308395139873028,-1.0070217847824097,0.0037776401732116938,0.013590936549007893,0.0002620199229568243
2024-05-13 17:17:36.370441,0.38559021874343047,0.1435728575301291,170.50277723221535,0.003428009105846286,-0.0009931836975738406,-1.0003947019577026,0.0006790386978536844,0.01171617116779089,0.0007741327863186598
2024-05-13 17:17:36.395921,0.38647841013979656,0.16108691664528307,170.5179129314161,0.0113375224173069,-0.0008329541888087988,-1.0024670362472534,0.0026850905269384384,0.010809752158820629,0.0015878262929618359
2024-05-13 17:17:36.413897,0.38863936459931225,0.1728160856779139,170.53347210234537,0.005273870658129454,-0.001986273331567645,-1.0000149011611938,0.003860496450215578,0.010368583723902702,0.002727810526266694
2024-05-13 17:17:36.431217,0.39512673696992856,0.1857726076878843,170.52869096992637,0.008725547231733799,-0.009384886361658573,-1.0019657611846924,0.00414817500859499,0.007798635400831699,-0.0008759760530665517
2024-05-13 17:17:36.455829,0.39152658694709713,0.19095406656549269,170.52848606425127,0.010974251665174961,-0.005746915005147457,-1.0060471296310425,-0.0009685297263786197,0.0030641285702586174,0.00041404349030926824
2024-05-13 17:17:36.471206,0.3897060747290243,0.19734865775314522,170.54005640470527,0.005860606674104929,0.001338429981842637,-0.9951462745666504,0.0009574672440066934,0.005011990200728178,-0.0009290608577430248
2024-05-13 17:17:36.496976,0.3917983537708696,0.2077413642044882,170.5379117253059,0.004784866236150265,-0.0033649413380771875,-1.0022248029708862,0.0016276943497359753,0.007647021673619747,-0.0001263556769117713
2024-05-13 17:17:36.515786,0.3948119879791526,0.2213579332842904,170.53646372520186,0.008817177265882492,-0.0064011854119598866,-0.9979732036590576,0.0031239527743309736,0.009498413652181625,0.0024361249525099993
2024-05-13 17:17:36.527125,0.39767260994177145,0.23336000305881763,170.5348791213144,0.011815489269793034,-0.005157130304723978,-1.0047588348388672,0.00318638957105577,0.007389984559267759,0.0024926350452005863
2024-05-13 17:17:36.557148,0.40204142305049373,0.24202639253765312,170.5455342164196,0.011950938031077385,-0.0021083471365273,-0.9960797429084778,0.005166735500097275,0.005849702283740044,0.0010389615781605244
2024-05-13 17:17:36.575786,0.40719538774865016,0.2537130062901036,170.5602327835135,0.009895806200802326,-0.0030951611697673798,-1.0036288499832153,0.004811251536011696,0.007851633243262768,0.0006773625500500202
2024-05-13 17:17:36.587506,0.41272962856493234,0.25890552420447355,170.56546470841772,0.0028495348524302244,-0.0071031502448022366,-1.0018970966339111,0.004927011206746101,0.007544204127043486,-0.0003776935045607388
2024-05-13 17:17:36.617345,0.4166210754836942,0.2697811330342644,170.5625960289663,0.008453737013041973,-0.00805966928601265,-1.0028809309005737,0.003587819170206785,0.007851134985685349,0.0001592283369973302
2024-05-13 17:17:36.633378,0.41771905507320023,0.2806650394766797,170.56124365151067,0.010251223109662533,-0.005040712188929319,-0.9989109039306641,0.0026081481482833624,0.006894078571349382,0.00019234587671235204
2024-05-13 17:17:36.653850,0.41866943854361044,0.29541141789473724,170.56547836879605,0.009703476913273335,-0.0023205438628792763,-0.9977364540100098,0.0018982564797624946,0.010924928821623325,-0.0002983348967973143
2024-05-13 17:17:36.677823,0.4218061762395124,0.3105341770886595,170.56748644441205,0.009620936587452888,-0.00502007594332099,-1.0034782886505127,0.0031642657704651356,0.011517731472849846,-0.00022932401043362916
2024-05-13 17:17:36.682114,0.4247135956701164,0.32476610352399754,170.57553240725431,0.010691586881875992,-0.005956628359854221,-0.9999264478683472,0.003360174363479018,0.010453534312546253,0.0023753312416374683
2024-05-13 17:17:36.713086,0.42827612629165984,0.33590891682463864,170.5886327100824,0.010749075561761856,-0.00432064151391387,-0.9981684684753418,0.0034395763650536537,0.008050182834267616,0.002038822276517749
2024-05-13 17:17:36.728990,0.4309288543714164,0.3468869251311268,170.60449240933517,0.011179420165717602,-0.0026024021208286285,-0.9998695254325867,0.003198231803253293,0.008640123531222343,-0.00020076718647032976
2024-05-13 17:17:36.755915,0.4341386163944993,0.3585002744325583,170.60558523960236,0.01033497042953968,-0.0053988732397556305,-1.0069082975387573,0.0023230467922985554,0.00854427833110094,-0.0013170066522434354
2024-05-13 17:17:36.772968,0.4366248319328104,0.3686727206233816,170.60323565452788,0.01194099709391594,-0.007315313443541527,-1.003309965133667,0.0028335866518318653,0.007374280598014593,-0.002077642362564802
2024-05-13 17:17:36.797894,0.43660933060504564,0.37628782125899046,170.59639180497953,0.010044037364423275,-0.003914814442396164,-1.0030478239059448,0.002192315412685275,0.005945991724729538,5.707550735678524e-05
2024-05-13 17:17:36.807930,0.4364892686860415,0.3871398179113771,170.59987520145626,0.011214597150683403,-0.00221174955368042,-1.0037659406661987,0.0004639460821636021,0.008061375468969345,0.0005287714302539825
2024-05-13 17:17:36.833924,0.43728618634353805,0.4004170386472208,170.602757541286,0.012634806334972382,-0.004806628450751305,-1.0052556991577148,0.0014444212429225445,0.00973223801702261,-7.28946179151535e-05
2024-05-13 17:17:36.857908,0.4423344165116915,0.4110422783552483,170.60663708873454,0.01453518494963646,-0.007065365556627512,-1.0016721487045288,0.0034925781656056643,0.006461296230554581,0.0015098551521077752
2024-05-13 17:17:36.868469,0.4455964454901808,0.4192024601031359,170.61820742918857,0.0120876869186759,-0.004588861018419266,-1.0057014226913452,0.003752049757167697,0.006567484233528376,0.0010024220682680607
2024-05-13 17:17:36.893280,0.4482439175259277,0.42681836115153815,170.62591188257232,0.009454178623855114,-0.006012721452862024,-1.0085148811340332,0.003051591105759144,0.006323781795799732,-0.0013388482620939612
2024-05-13 17:17:36.916316,0.45198109821898247,0.4389005389064676,170.62431361830656,0.011581536382436752,-0.007914459332823753,-1.0045419931411743,0.0026048654690384865,0.007669810671359301,-0.001294212182983756
2024-05-13 17:17:36.935198,0.4530535980012331,0.4490713842717041,170.62522886365534,0.010506739839911461,-0.007382435258477926,-1.0031570196151733,0.0011488271411508322,0.008121023885905743,0.0011706906370818615
2024-05-13 17:17:36.953188,0.4519812049406882,0.4646205767215026,170.63379392087452,0.010289627127349377,-0.0031241143587976694,-1.005201816558838,0.000438639079220593,0.011440551839768887,0.0012739977100864053
2024-05-13 17:17:36.964349,0.45683725599715574,0.48431142512926756,170.63444961903485,0.01636604592204094,-0.005885209888219833,-1.0027118921279907,0.004003765061497688,0.013522233814001083,-0.0006160238408483565
2024-05-13 17:17:36.995328,0.46115815105998215,0.4976771448396305,170.64617022365059,0.017488693818449974,-0.005113979801535606,-1.0016615390777588,0.004556668922305107,0.00874865148216486,0.001305838581174612
2024-05-13 17:17:37.010662,0.4647021654655725,0.5058109930066166,170.65606033756876,0.013078686781227589,-0.006449236534535885,-1.0075818300247192,0.004084197338670492,0.006614764221012592,0.00026778411120176315
2024-05-13 17:17:37.037885,0.46632844417912317,0.5147873023190414,170.65407958270947,0.012310824356973171,-0.005294925067573786,-1.0049443244934082,0.002247861586511135,0.00745465699583292,-0.002570096403360367
2024-05-13 17:17:37.055453,0.46392987384168505,0.5243826508858515,170.6591066019386,0.012359882704913616,-0.003962694201618433,-1.0032228231430054,0.0006485766498371959,0.007451850920915604,-7.079570787027478e-05
2024-05-13 17:17:37.058651,0.4634981845417991,0.5345415967808934,170.67066328201426,0.011921262368559837,-0.0035156954545527697,-1.006524920463562,0.0014203437604010105,0.0064869895577430725,0.001826346036978066
2024-05-13 17:17:37.097089,0.4683254207377056,0.5455158431472527,170.67506192383973,0.018508123233914375,-0.0070974272675812244,-1.0013885498046875,0.0044018058106303215,0.005913604516535997,-0.00027818745002150536
2024-05-13 17:17:37.106699,0.46945971238760376,0.5553149234503996,170.68325815084376,0.0168410986661911,-0.006981555838137865,-1.0069044828414917,0.0020150751806795597,0.0068904319778084755,0.00012941917520947754
2024-05-13 17:17:37.118501,0.47426058832218226,0.561927453701471,170.68134569787617,0.010255255736410618,-0.01098789181560278,-1.0078094005584717,0.0030005769804120064,0.005128230433911085,-0.0025705674197524786
2024-05-13 17:17:37.157577,0.47296162508026335,0.5728102929268286,170.69085332120082,0.013141604140400887,-0.003074140753597021,-1.0024082660675049,0.001743023982271552,0.008309930562973022,-0.002579066203907132
2024-05-13 17:17:37.166003,0.47390920710589685,0.5900864560195824,170.69637211405018,0.013302267529070377,-0.0052072154358029366,-1.007447600364685,0.002465799916535616,0.013260584324598312,0.0012005935423076153
2024-05-13 17:17:37.193912,0.4771142733739253,0.6071272977510883,170.70653543553516,0.014472811482846737,-0.005686529912054539,-1.0019339323043823,0.003083182033151388,0.01286473497748375,-0.0005154765676707029
2024-05-13 17:17:37.213165,0.4834810235365821,0.6207409853448344,170.70984124709344,0.019979290664196014,-0.0072502573020756245,-1.0039223432540894,0.005364701617509127,0.009041327983140945,-0.0023240158334374428
2024-05-13 17:17:37.235817,0.4875334601485153,0.6307425700847016,170.72199898381606,0.0197210181504488,-0.006078622303903103,-1.0078095197677612,0.003808181267231703,0.00622527115046978,9.172214777208865e-05
2024-05-13 17:17:37.253695,0.4844143582144938,0.63775893527045,170.73762645663706,0.013666764833033085,-0.0019998550415039062,-1.0002388954162598,0.0015215456951409578,0.00554647808894515,0.00029583790455944836
2024-05-13 17:17:37.274551,0.4867123967050857,0.6472107431429841,170.74546751380424,0.014447172172367573,-0.00463007902726531,-1.0080369710922241,0.0037019182927906513,0.006929513532668352,0.0001375986757921055
2024-05-13 17:17:37.295774,0.4904142525135269,0.6552983274505139,170.7510136274103,0.01472431980073452,-0.008799891918897629,-1.0003758668899536,0.0030329113360494375,0.005833244416862726,0.0018670319113880396
2024-05-13 17:17:37.313827,0.49127619037027076,0.6619435145435545,170.7555898541542,0.016421647742390633,-0.008097858168184757,-1.0089855194091797,0.0019693528302013874,0.004166753031313419,-0.0027389219030737877
2024-05-13 17:17:37.338006,0.49232419752104456,0.672542687474945,170.7597562695479,0.01666814275085926,-0.007930655032396317,-1.0021905899047852,0.0016976119950413704,0.006798405200242996,-0.0026731707621365786
2024-05-13 17:17:37.355730,0.4910220859888051,0.6889115026251449,170.76909996833248,0.015395883470773697,-0.006497225258499384,-1.0050266981124878,0.00013920615310780704,0.012443223036825657,-0.0013263984583318233
2024-05-13 17:17:37.368751,0.49654925649207926,0.7035356846900827,170.78415370526318,0.010871869511902332,-0.007039338815957308,-1.0020885467529297,0.004220301751047373,0.012867845594882965,0.0012131381081417203
2024-05-13 17:17:37.396993,0.504550876465602,0.7177623817618375,170.80165264991678,0.01290348544716835,-0.005148956552147865,-1.0038256645202637,0.007023884914815426,0.01249004527926445,0.0003965924261137843
2024-05-13 17:17:37.416028,0.5124299799208878,0.7310075593055202,170.81942480213712,0.018477587029337883,-0.0042528193444013596,-1.0047736167907715,0.007819203659892082,0.010611597448587418,0.002733844332396984
2024-05-13 17:17:37.431221,0.5200363026961962,0.7463001927746201,170.83320812388223,0.018552420660853386,-0.005707489792257547,-0.9984642863273621,0.007369710598140955,0.011757886037230492,0.0062831733375787735
2024-05-13 17:17:37.456945,0.531705680893163,0.7634999964868874,170.85164963464126,0.017936157062649727,-0.006665168330073357,-1.0079878568649292,0.010816652327775955,0.012705464847385883,0.005609306041151285
2024-05-13 17:17:37.475909,0.5447370414993126,0.7723657421121226,170.86455869217258,0.011649967171251774,-0.011956247501075268,-0.9999809265136719,0.00976352859288454,0.009566017426550388,0.004177918657660484
2024-05-13 17:17:37.493483,0.557144400291758,0.7867809630771403,170.89148329788077,0.013462740927934647,-0.004760371521115303,-1.009272575378418,0.012967069633305073,0.01361246220767498,0.0051049175672233105
2024-05-13 17:17:37.517192,0.5715271244973653,0.8135268099281466,170.90037620418013,0.015206201933324337,-0.011099601164460182,-0.9975940585136414,0.011840876191854477,0.020811378955841064,0.0063161831349134445
2024-05-13 17:17:37.535839,0.5955373205032228,0.8511209715326902,170.9228202057928,0.02259618043899536,-0.0036189763341099024,-1.0015274286270142,0.02216605469584465,0.028156094253063202,0.004300777800381184
2024-05-13 17:17:37.553461,0.6251175357772258,0.8823876032014516,170.93784662196683,0.020906485617160797,-0.005175752565264702,-1.001721739768982,0.026648852974176407,0.025258712470531464,0.0018153279088437557
2024-05-13 17:17:37.567929,0.6571550716876996,0.911875824365071,170.9784179456367,0.025311028584837914,0.004099131096154451,-0.9999986290931702,0.03257344663143158,0.02460426092147827,0.004159342497587204
2024-05-13 17:17:37.595859,0.6946637492059121,0.9456563391743673,170.98946919171377,0.022826585918664932,-0.008847305551171303,-1.003620982170105,0.03303767740726471,0.026655294001102448,0.00555083155632019
2024-05-13 17:17:37.613780,0.7385004369075829,0.9779833043509203,171.00090292838436,0.021115602925419807,-0.012508203275501728,-0.9960407614707947,0.037182893604040146,0.02663516439497471,0.00426517054438591
2024-05-13 17:17:37.637467,0.7856117200685987,1.0084434934499442,171.01568345774828,0.019394515082240105,-0.009440059773623943,-1.0084112882614136,0.04159341752529144,0.027234451845288277,-0.00021036475664004683
2024-05-13 17:17:37.655623,0.8271013840167238,1.0519399523535837,171.03542270444962,0.02312214858829975,-0.006693738512694836,-1.001604437828064,0.04022523760795593,0.034476686269044876,-0.0006401018472388387
2024-05-13 17:17:37.669077,0.8756284906874893,1.0985573808210958,171.03390640245388,0.025401407852768898,-0.017475364729762077,-1.0081297159194946,0.03971919044852257,0.037697143852710724,-0.0007299870485439897
2024-05-13 17:17:37.697161,0.9243862763253013,1.1418652624706196,171.0416928181077,0.024016251787543297,-0.016668688505887985,-0.9967814683914185,0.04203888401389122,0.0349225252866745,-0.0009121511247940361
2024-05-13 17:17:37.715155,0.9745563636565722,1.1830213143664718,171.07107629191708,0.029376644641160965,-0.002219832269474864,-1.0013177394866943,0.04811509698629379,0.03395697474479675,-0.002242360031232238
2024-05-13 17:17:37.731283,1.0308561188811063,1.2294963760784716,171.09910738827082,0.0294781606644392,-0.005108213052153587,-0.9993773102760315,0.05279262363910675,0.03713004291057587,0.000587441842071712
2024-05-13 17:17:37.757912,1.0976152416024572,1.276870995048503,171.1076997662467,0.0269844401627779,-0.018208205699920654,-0.9994832873344421,0.056823328137397766,0.03831697255373001,0.0002214456326328218
2024-05-13 17:17:37.775893,1.1665270478511256,1.3091885687149474,171.09552836914574,0.017335299402475357,-0.025342432782053947,-1.0063139200210571,0.057369403541088104,0.03426912799477577,-0.0028102558571845293
2024-05-13 17:17:37.793900,1.2292527304241725,1.36244195284795,171.09328806709797,0.028592275455594063,-0.020701317116618156,-1.0001691579818726,0.055240944027900696,0.043611399829387665,-0.004208186641335487
2024-05-13 17:17:37.817854,1.2954370500381844,1.4264639839811242,171.09887516183903,0.03110644780099392,-0.01824905350804329,-1.0047253370285034,0.058528345078229904,0.051288455724716187,-0.0036318248603492975
2024-05-13 17:17:37.826571,1.362019121449644,1.4806302655853814,171.11362837044626,0.029920663684606552,-0.013509541749954224,-1.0013751983642578,0.06127050146460533,0.04569856822490692,-0.004133464768528938
2024-05-13 17:17:37.838636,1.4358415135464342,1.5293172413714073,171.1313868622883,0.03645146265625954,-0.01587505079805851,-0.9940180778503418,0.06698431074619293,0.04040592908859253,-0.0005480816471390426
2024-05-13 17:17:37.877576,1.522002428935441,1.5838619581443656,171.1324113906638,0.033007342368364334,-0.026211194694042206,-1.0054175853729248,0.0731041356921196,0.04589971527457237,0.0027443356812000275
2024-05-13 17:17:37.886563,1.5972487020307675,1.6398538212477203,171.13795750426985,0.03001679666340351,-0.024631500244140625,-1.012813925743103,0.0657162070274353,0.04681658744812012,-0.004617868922650814
2024-05-13 17:17:37.899678,1.6652374722461323,1.6833063108085777,171.12819033375672,0.03378947824239731,-0.033858850598335266,-1.0081660747528076,0.05843903496861458,0.03903461620211601,-0.004095014184713364
2024-05-13 17:17:37.937760,1.7311648059926223,1.736261087608804,171.12963833386078,0.03903471305966377,-0.028484106063842773,-0.9975677132606506,0.05925692990422249,0.04347195476293564,-0.0034248349256813526
2024-05-13 17:17:37.946931,1.8069555732308458,1.7977802812979915,171.14622203316557,0.028167497366666794,-0.022601259872317314,-0.9984778761863708,0.06632667034864426,0.05267287418246269,-0.005464463494718075
2024-05-13 17:17:37.973905,1.884752921981172,1.856008284302585,171.1604971285309,0.03874209150671959,-0.023071741685271263,-1.001447319984436,0.07018303126096725,0.04864015802741051,-0.0026652070228010416
2024-05-13 17:17:37.994280,1.9668332262279193,1.9111112623184858,171.15996437377564,0.04551268741488457,-0.03228921443223953,-1.0030800104141235,0.07202358543872833,0.04420523717999458,0.0010180898243561387
2024-05-13 17:17:38.015869,2.049939766397461,1.959709338923596,171.1834738848988,0.035477228462696075,-0.02436504326760769,-0.9955353140830994,0.07461871951818466,0.042791277170181274,0.0012200225610285997
2024-05-13 17:17:38.033556,2.1283264324071123,2.005026576849573,171.2204661894436,0.03978212922811508,-0.018240727484226227,-0.9984840750694275,0.07648605853319168,0.0405079647898674,0.0026219580322504044
2024-05-13 17:17:38.056101,2.217533398722533,2.050321616660747,171.22318460473326,0.044454917311668396,-0.03293974697589874,-0.9921444654464722,0.07758990675210953,0.034508101642131805,0.008161121979355812
2024-05-13 17:17:38.075784,2.3026243222893754,2.06783699645701,171.25102445579023,0.04486066475510597,-0.030397998169064522,-0.9935336112976074,0.07657012343406677,0.0146959088742733,0.01130588073283434
2024-05-13 17:17:38.093164,2.3888593025421945,2.0588493212829193,171.25857864501228,0.05032574012875557,-0.037749942392110825,-0.9875853657722473,0.07673943787813187,-0.00745746772736311,0.011856421828269958
2024-05-13 17:17:38.109228,2.4869700607709615,2.0375519376771734,171.2583190978238,0.05920572578907013,-0.04484148696064949,-0.9912514686584473,0.08331574499607086,-0.0234848503023386,0.012151191011071205
2024-05-13 17:17:38.135761,2.580287306862849,1.9920189084621067,171.27076370249156,0.050233177840709686,-0.040692366659641266,-0.9918756484985352,0.08186613768339157,-0.04224149510264397,0.010418492369353771
2024-05-13 17:17:38.153671,2.673478194455092,1.921612891610792,171.2680726079586,0.03782998025417328,-0.04767632856965065,-0.9939727187156677,0.08192957192659378,-0.058112550526857376,0.007911058142781258
2024-05-13 17:17:38.181013,2.7691623145378004,1.8433878022636938,171.2665016644495,0.036061499267816544,-0.04928305000066757,-0.9978232979774475,0.08102487772703171,-0.06670497357845306,0.007784496992826462
2024-05-13 17:17:38.195905,2.8578435697305418,1.7528693329059246,171.2712827968685,0.03708392381668091,-0.0475429967045784,-0.9894834160804749,0.079532191157341,-0.07890569418668747,0.00865952018648386
2024-05-13 17:17:38.213057,2.9557513432749127,1.6577190347955348,171.2715969855703,0.04491739720106125,-0.04754197970032692,-0.995267927646637,0.08580726385116577,-0.08744049072265625,0.007887553423643112
2024-05-13 17:17:38.237885,3.0604989109428167,1.5476252432765092,171.26584596628916,0.04225855693221092,-0.05189933255314827,-0.9942547082901001,0.089116171002388,-0.0994403064250946,0.005187169648706913
2024-05-13 17:17:38.249468,3.152413406933913,1.4184100170109155,171.2628816641894,0.018692709505558014,-0.05148930475115776,-0.9860995411872864,0.08090328425168991,-0.10685691982507706,0.0016852279659360647
2024-05-13 17:17:38.273892,3.2242091538379136,1.29521859070645,171.2407655116569,0.01070986595004797,-0.05609048157930374,-0.9851366281509399,0.06468920409679413,-0.10100056976079941,-0.007207339629530907
2024-05-13 17:17:38.297921,3.2702836889881155,1.190305924559702,171.19242143271154,0.009053858928382397,-0.06864254921674728,-0.9766783118247986,0.03912726789712906,-0.08896239846944809,-0.008249218575656414
2024-05-13 17:17:38.307146,3.2889051325430976,1.1045891849101577,171.15287463741717,0.022896824404597282,-0.069410040974617,-0.9804203510284424,0.015482690185308456,-0.07964324951171875,-0.0035475462209433317
2024-05-13 17:17:38.333805,3.2833991462984207,1.0222699307641656,171.1215923710185,0.026380764320492744,-0.0688091516494751,-0.982450544834137,-0.0038529541343450546,-0.07613492012023926,-0.005665366072207689
2024-05-13 17:17:38.357535,3.247141727419643,0.9499563701437135,171.09474972758034,0.03390216454863548,-0.0635814368724823,-0.9851828217506409,-0.02969622239470482,-0.07191875576972961,-0.00851527787744999
2024-05-13 17:17:38.368702,3.1833560848647746,0.8714167185688244,171.08078882091684,0.013808631338179111,-0.06316181272268295,-0.9826459288597107,-0.05334091559052467,-0.0677163377404213,-0.002373898634687066
2024-05-13 17:17:38.399318,3.102963691116667,0.7979084618130018,171.06509304620414,0.0009077262366190553,-0.05953138694167137,-0.9843124151229858,-0.06784451752901077,-0.05967167392373085,-0.007100459188222885
2024-05-13 17:17:38.416957,3.0092411159862213,0.7421204371676896,171.06001138546168,0.00961841456592083,-0.0536525584757328,-0.986923098564148,-0.08049491792917252,-0.05028343200683594,-0.006283608265221119
2024-05-13 17:17:38.430816,2.8973993296482012,0.701099815116474,171.05294896985987,0.020670728757977486,-0.05545324459671974,-0.9881501793861389,-0.09599083662033081,-0.04101752117276192,-0.002005118178203702
2024-05-13 17:17:38.453759,2.779186044031617,0.6622164553060905,171.03397470434558,0.030804330483078957,-0.05891932547092438,-0.9975069761276245,-0.10508903861045837,-0.042224764823913574,-0.0005977018154226243
2024-05-13 17:17:38.477918,2.659102140356096,0.6148243339763109,171.01775983525596,0.02440890483558178,-0.05437067896127701,-0.9941142201423645,-0.1067899763584137,-0.0456058569252491,-0.002703158650547266
2024-05-13 17:17:38.493591,2.525898723945449,0.5670798709348936,171.02498617539783,0.019404198974370956,-0.042243704199790955,-0.9955301284790039,-0.11463593691587448,-0.04368827864527702,-0.0009864169405773282
2024-05-13 17:17:38.513753,2.374895194227515,0.5183776339449409,171.03338730807695,0.0023960459511727095,-0.04161129146814346,-0.9906095862388611,-0.12816046178340912,-0.04034006595611572,-0.0012172175338491797
2024-05-13 17:17:38.537905,2.2150218100986727,0.47813629378934136,171.0252047414513,0.0028755797538906336,-0.04758956655859947,-0.9936768412590027,-0.1426849067211151,-0.034726787358522415,-0.00167671253439039
2024-05-13 17:17:38.547718,2.038503895292744,0.443634553692374,171.0288657228464,0.006018697749823332,-0.04074676334857941,-0.9921257495880127,-0.15157392621040344,-0.030841588973999023,0.0017458214424550533
2024-05-13 17:17:38.573879,1.8590276548025537,0.4228773153200143,171.03616036487998,0.020010199397802353,-0.03168110549449921,-0.9914209842681885,-0.15508365631103516,-0.025171028450131416,-0.0034081381745636463
2024-05-13 17:17:38.597821,1.6683898179915047,0.4021490252103479,171.05788036644063,0.018506815657019615,-0.026424763724207878,-0.993243396282196,-0.1635165959596634,-0.023664027452468872,0.0012102967593818903
2024-05-13 17:17:38.607126,1.4674964521416816,0.3723371704739463,171.06180089502422,0.008011915720999241,-0.03246582671999931,-0.9965518712997437,-0.17551279067993164,-0.023507991805672646,-0.0011898219818249345
2024-05-13 17:17:38.618567,1.2588480468195435,0.34842924054265384,171.0740132732602,0.0010480985511094332,-0.026965878903865814,-0.9949485659599304,-0.18266265094280243,-0.019709022715687752,-0.001174730947241187
2024-05-13 17:17:38.657581,1.0452461535235595,0.3328762061114472,171.0957605955775,0.007723081391304731,-0.020885080099105835,-0.9964265823364258,-0.18441694974899292,-0.014526665210723877,0.0010091990698128939
2024-05-13 17:17:38.667230,0.8242098661202812,0.3245486313680414,171.13007546596765,0.015329761430621147,-0.0100123705342412,-0.999670684337616,-0.189736008644104,-0.012469213455915451,0.002204712014645338
2024-05-13 17:17:38.693902,0.6030146167362415,0.30921888542575604,171.16619350629867,0.011627856642007828,-0.009037988260388374,-0.9956201314926147,-0.19053710997104645,-0.014748752117156982,0.0029650272335857153
2024-05-13 17:17:38.713159,0.3867356094507299,0.3000892437025497,171.17820097885956,0.015412797220051289,-0.01097751036286354,-0.9994364380836487,-0.1895255595445633,-0.011316451244056225,-0.0019463354256004095
2024-05-13 17:17:38.735812,0.16485444632341945,0.29041716222928277,171.21382724557034,0.006666353438049555,-0.0034268214367330074,-0.9949736595153809,-0.19115716218948364,-0.00892853643745184,0.0006678109057247639
2024-05-13 17:17:38.753161,-0.06057132484896973,0.278914750141011,171.26290898494605,0.007173225283622742,0.002956966869533062,-0.9976948499679565,-0.19471175968647003,-0.009283801540732384,0.0018534965347498655
2024-05-13 17:17:38.775012,-0.2909830273937624,0.2723440547986059,171.31379389426266,0.004988277796655893,0.008871379308402538,-0.9974049925804138,-0.1974039077758789,-0.006719538476318121,0.002107886830344796
2024-05-13 17:17:38.795762,-0.5191188695524459,0.27064360449953717,171.3388197073816,0.013913832604885101,0.002691378351300955,-0.9983042478561401,-0.20187808573246002,-0.005021247081458569,0.004240820184350014
2024-05-13 17:17:38.813935,-0.7576798749012431,0.26791809221643764,171.36724695470718,0.011978437192738056,0.008870444260537624,-1.0005724430084229,-0.206409752368927,-0.005260651931166649,0.001004743273369968
2024-05-13 17:17:38.837128,-0.9959728486859702,0.25956308999464595,171.4173942035934,0.008578931912779808,0.020475611090660095,-0.9987582564353943,-0.20547136664390564,-0.0074997395277023315,-0.0011448743753135204
2024-05-13 17:17:38.855627,-1.2326798845619322,0.25756958189150136,171.47280069814056,0.009083373472094536,0.025760836899280548,-1.000841498374939,-0.20418010652065277,-0.0039656804874539375,0.00042239751201123
2024-05-13 17:17:38.873308,-1.4685839463235943,0.2513301240434154,171.513153455757,0.007812276482582092,0.021359330043196678,-0.9969608783721924,-0.2062111496925354,-0.005296580493450165,0.002187735168263316
2024-05-13 17:17:38.888799,-1.7063441119922076,0.2507645256832002,171.5482333073342,0.012586859986186028,0.023638049140572548,-0.9985517263412476,-0.2095598578453064,-0.003703449387103319,0.0024163266643881798
2024-05-13 17:17:38.915662,-1.9572873965325919,0.24707803780039156,171.59525232958055,0.01123704481869936,0.03149113804101944,-0.9981379508972168,-0.21610084176063538,-0.005193633958697319,0.0009761458495631814
2024-05-13 17:17:38.933806,-2.2085815820415853,0.24746074183732386,171.6523663714202,0.012471497058868408,0.041150372475385666,-0.9961931705474854,-0.2174859642982483,-0.003980203997343779,0.0006046689813956618
2024-05-13 17:17:38.949026,-2.451859900229334,0.24124510961005358,171.71875581015271,0.0036681576166301966,0.04615641012787819,-1.0007774829864502,-0.21018695831298828,-0.004535871557891369,0.0025655219797044992
2024-05-13 17:17:38.975804,-2.6913720094200557,0.2382049817383103,171.763602832243,0.01232178509235382,0.04421853646636009,-0.9954936504364014,-0.21058538556098938,-0.005386923439800739,0.0042242854833602905
2024-05-13 17:17:38.993267,-2.93605222393495,0.23735259547423387,171.82918630865348,0.007623953279107809,0.052715230733156204,-0.9979276657104492,-0.2118465006351471,-0.002541025634855032,0.0050483448430895805
2024-05-13 17:17:39.017893,-3.177295572636858,0.2349937789721994,171.894209709552,0.007258678786456585,0.057651687413454056,-0.9972241520881653,-0.20781458914279938,-0.002221745438873768,0.000875860801897943
2024-05-13 17:17:39.035548,-3.417211730205668,0.23611120859258405,171.9495342418291,0.011197472922503948,0.06139702722430229,-1.0014123916625977,-0.20817963778972626,-0.002377514960244298,-0.0003253523609600961
2024-05-13 17:17:39.045434,-3.6599090554271427,0.23386509021185478,171.99867062271818,0.009001987986266613,0.057793766260147095,-0.9958512187004089,-0.21246302127838135,-0.003407259937375784,0.0017539847176522017
2024-05-13 17:17:39.083804,-3.909821835176501,0.232734293697821,172.06174058951407,0.008245761506259441,0.06558879464864731,-0.9995602369308472,-0.21743419766426086,-0.0019268454052507877,0.002413249108940363
2024-05-13 17:17:39.095802,-4.16048721639503,0.2334158451913678,172.13319802861074,0.006393171846866608,0.07301101088523865,-0.9958322644233704,-0.2158435583114624,-0.0016489129047840834,0.0006416076794266701
2024-05-13 17:17:39.105277,-4.403469915457764,0.23344580731026593,172.2109255813655,0.013305675238370895,0.08265819400548935,-0.9977646470069885,-0.21136777102947235,-0.002591246273368597,0.0017242212779819965
2024-05-13 17:17:39.137516,-4.645432781900051,0.23365143335688032,172.27995147311765,0.00810468290001154,0.08212989568710327,-0.9962027668952942,-0.20901165902614594,-0.002418013522401452,0.0025200943928211927
2024-05-13 17:17:39.150618,-4.881508025277787,0.23081821219222087,172.34098604354088,0.006145957391709089,0.08327046781778336,-0.9965104460716248,-0.20754176378250122,-0.0023146793246269226,0.0014715761644765735
2024-05-13 17:17:39.173882,-5.118748669682656,0.2357917905271802,172.40848197291893,0.010327105410397053,0.08496592938899994,-0.9962815642356873,-0.20755265653133392,0.0005139237619005144,0.0037814192473888397
2024-05-13 17:17:39.197881,-5.363846592953979,0.23189660834871598,172.48452929913788,0.00696978997439146,0.09336309134960175,-0.9969837069511414,-0.21226470172405243,-0.0036596963182091713,0.0030448418110609055
2024-05-13 17:17:39.212196,-5.6150519860037615,0.2306622650996477,172.55753036098696,0.009486439637839794,0.09738949686288834,-0.9923610687255859,-0.21604198217391968,-0.0027712916489690542,0.003562214085832238
2024-05-13 17:17:39.233736,-5.864182282206331,0.23413240140441088,172.63723866860101,0.00514644430950284,0.10468471795320511,-0.9944634437561035,-0.2148282676935196,0.0021244711242616177,0.0009029702050611377
2024-05-13 17:17:39.257911,-6.104220742849966,0.23641875386821976,172.71627761767638,0.008337876759469509,0.1083575114607811,-0.9966650605201721,-0.21029293537139893,0.00040278781671077013,0.0019374411785975099
2024-05-13 17:17:39.274581,-6.344704019563299,0.24008435097712164,172.80131347284305,0.01605113223195076,0.1143784373998642,-0.9919403791427612,-0.20678532123565674,-0.0015007777838036418,0.002442730125039816
2024-05-13 17:17:39.317900,-6.581597604980967,0.24116808321890582,172.87916396900286,0.008527789264917374,0.11592474579811096,-0.992987334728241,-0.2060662806034088,-0.0008754360023885965,0.003211061703041196
2024-05-13 17:17:39.326139,-7.044917937800081,0.24221248851210953,173.03414096127045,0.006300062872469425,0.11978620290756226,-0.9939616322517395,-0.20132629573345184,-0.0016538924537599087,0.002645507687702775
2024-05-13 17:17:39.338612,-7.285210396103476,0.2400831503579316,173.12554255274355,0.009719685651361942,0.12726764380931854,-0.9927090406417847,-0.20667770504951477,-0.0026888141874223948,0.003473027143627405
2024-05-13 17:17:39.377860,-7.522942814128586,0.2423235324469751,173.20421267160376,0.00819024071097374,0.1273336261510849,-0.9904638528823853,-0.20794306695461273,-0.0004476477042771876,0.0036393003538250923
2024-05-13 17:17:39.395895,-7.761850878464585,0.24511302439269064,173.29489026302485,0.011037792079150677,0.134013831615448,-0.990344762802124,-0.20680493116378784,-0.0004959481302648783,0.00432430487126112
2024-05-13 17:17:39.413793,-7.997218343489578,0.2491509201722111,173.38773985460202,0.007653964217752218,0.14319506287574768,-0.9903424382209778,-0.20443777740001678,0.0022721225395798683,0.0009328823070973158
2024-05-13 17:17:39.430943,-8.227414501539226,0.24867270020860444,173.48117684244778,0.006462320685386658,0.14582335948944092,-0.989509105682373,-0.19976572692394257,0.0007594333728775382,0.001748224371112883
2024-05-13 17:17:39.455795,-8.457272565224958,0.254564912306504,173.57484605672533,0.010943220928311348,0.1517879068851471,-0.9898414611816406,-0.1982359141111374,0.002484906231984496,-0.00034434025292284787
2024-05-13 17:17:39.472189,-8.680958699221936,0.2572889571661491,173.6637068178272,0.009913098998367786,0.14852866530418396,-0.9889009594917297,-0.19589118659496307,0.0004471791326068342,0.0016254798974841833
2024-05-13 17:17:39.497091,-8.905221130430135,0.2617978425137095,173.75927482469402,0.013924257829785347,0.15552565455436707,-0.9879536628723145,-0.1956578940153122,0.0006594868027605116,0.002084136940538883
2024-05-13 17:17:39.515684,-9.12927011822677,0.263814109020612,173.85276645405315,0.009661867283284664,0.15760551393032074,-0.98967045545578,-0.1945914328098297,-7.851931150071323e-05,0.0019459020113572478
2024-05-13 17:17:39.527038,-9.349080119869766,0.26290238548812106,173.94756947973295,0.004306469578295946,0.16427230834960938,-0.9891543984413147,-0.19068513810634613,-0.00041888770647346973,0.001519885496236384
2024-05-13 17:17:39.557062,-9.57104589996955,0.2642944100574814,174.04808254355885,0.00990991946309805,0.1704980880022049,-0.9846883416175842,-0.1918395608663559,9.73503920249641e-05,0.0015043166931718588
2024-05-13 17:17:39.575770,-9.793750194273338,0.26671130984788743,174.1505217207307,0.008223745040595531,0.16976262629032135,-0.9877340793609619,-0.1928633600473404,-0.0005923015996813774,0.004042759537696838
2024-05-13 17:17:39.587494,-10.010713714579733,0.2653660827465123,174.24831636926695,0.010796227492392063,0.17068403959274292,-0.9826040863990784,-0.1893720030784607,-0.0023671300150454044,0.003884033765643835
2024-05-13 17:17:39.617912,-10.232672664490345,0.27069728551754524,174.34235441375967,0.012884796597063541,0.1764748990535736,-0.9801721572875977,-0.19250500202178955,-0.0005779420025646687,0.0016578319482505322
2024-05-13 17:17:39.635763,-10.453633553008489,0.27224939264557774,174.44674702503414,0.005094668362289667,0.18406592309474945,-0.9878794550895691,-0.19081461429595947,0.0006511545507237315,0.002867929171770811
2024-05-13 17:17:39.650005,-10.67083869125677,0.27253519337366044,174.56327005227456,0.0066956584341824055,0.1913263499736786,-0.9825332164764404,-0.18649008870124817,-0.0006074385019019246,0.00045240571489557624
2024-05-13 17:17:39.678045,-10.88746838606748,0.2730323297596169,174.66124228572923,0.009865193627774715,0.18819095194339752,-0.983879804611206,-0.18813079595565796,-0.0009979188907891512,0.00025488101528026164
2024-05-13 17:17:39.695896,-11.098914821071796,0.2747824590127269,174.7548158773584,0.010221537202596664,0.1890961080789566,-0.9828585386276245,-0.1861194372177124,-0.0006920418818481266,0.0034818355925381184
2024-05-13 17:17:39.712068,-11.31264168548525,0.27792858821873756,174.86039694154846,0.010249657556414604,0.1968332976102829,-0.9788285493850708,-0.18460942804813385,0.0005915217916481197,3.432150697335601e-05
2024-05-13 17:17:39.737015,-11.522952601540052,0.28112418293537794,174.9706088739958,0.010205768048763275,0.202778622508049,-0.9803174734115601,-0.18244390189647675,0.0014478829689323902,0.0005062746931798756
2024-05-13 17:17:39.755900,-11.731776243903083,0.28338249427099277,175.08628495777913,0.008621887303888798,0.20676718652248383,-0.9813138246536255,-0.18055035173892975,-0.00025309761986136436,0.0037279189564287663
2024-05-13 17:17:39.765530,-11.938883801237148,0.2797703914171138,175.18847824814085,0.007149641867727041,0.207209050655365,-0.9783722162246704,-0.1795405000448227,-0.0034063193015754223,0.0006887205527164042
2024-05-13 17:17:39.796967,-12.136965263583042,0.2804924704784311,175.28701055710746,0.01094219833612442,0.21131214499473572,-0.9783414006233215,-0.1733510047197342,-0.000783513649366796,0.0005014358321204782
2024-05-13 17:17:39.815956,-12.336109674118518,0.2857233548460295,175.3994764519809,0.01136921625584364,0.21667271852493286,-0.9757364392280579,-0.17174074053764343,0.00011736052692867815,0.002056626370176673
2024-05-13 17:17:39.826090,-12.533976839279203,0.28169789214523255,175.51308981863488,0.0023151927161961794,0.2203287035226822,-0.9775699973106384,-0.1708669364452362,-0.0017382365185767412,0.0007589352317154408
2024-05-13 17:17:39.857075,-12.724895994506692,0.2845370363645629,175.61267397673367,0.012592398561537266,0.21743299067020416,-0.9750548601150513,-0.16883055865764618,-0.00023163630976341665,0.0012467809719964862
2024-05-13 17:17:39.871140,-12.922091239807775,0.29122352475774094,175.72283126766763,0.010395385324954987,0.22353944182395935,-0.9743841886520386,-0.17114540934562683,0.0013833739794790745,0.0017237314023077488
2024-05-13 17:17:39.893607,-13.116966782111994,0.29355971625814975,175.83283829443985,0.01175503060221672,0.2270023077726364,-0.9757416844367981,-0.16899527609348297,-0.0004363309999462217,0.0009590256377123296
2024-05-13 17:17:39.917806,-13.309007795910658,0.29578979970258534,175.94826849141307,0.012798269279301167,0.23544888198375702,-0.9724856615066528,-0.16569985449314117,-0.0003461661690380424,-0.00018153226119466126
2024-05-13 17:17:39.930875,-13.498524201037355,0.2950892517454095,176.05341242349624,0.009301494807004929,0.23170574009418488,-0.9698514938354492,-0.16576187312602997,-0.0024864748120307922,0.0023986443411558867
2024-05-13 17:17:39.953751,-13.68728330893983,0.2914656496277326,176.16918412992797,0.002737245988100767,0.238982692360878,-0.9722561836242676,-0.16248886287212372,-0.0022438322193920612,0.0030333383474498987
2024-05-13 17:17:39.983953,-13.86761993982203,0.29362975237756883,176.2875922893793,0.010982398875057697,0.24300844967365265,-0.9715517163276672,-0.1571163535118103,-0.0008339358028024435,0.0007074213353917003
2024-05-13 17:17:39.993756,-14.048418462246852,0.29757658786163127,176.41613644955893,0.013679984025657177,0.24733373522758484,-0.9699070453643799,-0.15645666420459747,-0.0008347403490915895,0.0011052330955863
2024-05-13 17:17:40.013880,-14.229440673366991,0.30226665998518215,176.5294356275111,0.018046174198389053,0.24398235976696014,-0.9687866568565369,-0.1571597009897232,-0.0006320506799966097,0.0031876019202172756
2024-05-13 17:17:40.037885,-14.40556393130494,0.301928592301693,176.63422438975746,0.007789907045662403,0.24516049027442932,-0.9703114032745361,-0.1559317409992218,-0.00031896185828372836,0.001724790665321052
2024-05-13 17:17:40.046888,-14.580674613698434,0.3017455645762778,176.74458658636652,0.004201992880553007,0.2547747790813446,-0.9662914276123047,-0.15105274319648743,0.0006729438900947571,0.0013615199131891131
2024-05-13 17:17:40.073774,-14.757656767924512,0.30216543444724847,176.87657316188785,0.004296232480555773,0.2624022662639618,-0.9646058082580566,-0.15043319761753082,0.0012171873822808266,0.0018760388484224677
2024-05-13 17:17:40.097989,-14.92730500652929,0.30910293229242447,177.00361468045008,0.011262696236371994,0.26393941044807434,-0.9642177224159241,-0.14668144285678864,0.003014000365510583,0.0017845069523900747
2024-05-13 17:17:40.107215,-15.08954761252648,0.314469273185086,177.119113179315,0.012105756439268589,0.258319616317749,-0.9688845872879028,-0.14382436871528625,0.0016414821147918701,0.003440120257437229
2024-05-13 17:17:40.118631,-15.252290529880375,0.3171212542129021,177.23290413088742,0.017098957672715187,0.26329898834228516,-0.9653965830802917,-0.14157703518867493,-0.001307761762291193,0.0001274245441891253
2024-05-13 17:17:40.157553,-15.416585607723153,0.3177177751873675,177.3574731209701,0.008609697222709656,0.26963019371032715,-0.9651341438293457,-0.14156222343444824,-8.12948273960501e-05,0.0007296832045540214
2024-05-13 17:17:40.166544,-15.576359100335385,0.3198336397261905,177.48243826202466,0.007984152063727379,0.27160125970840454,-0.9629612565040588,-0.13907034695148468,0.0006673485622741282,0.0018854760564863682
2024-05-13 17:17:40.199831,-15.737249328876912,0.3229483127094221,177.6047396293029,0.008949998766183853,0.27147990465164185,-0.9616372585296631,-0.13912881910800934,0.000512280035763979,0.004061851184815168
2024-05-13 17:17:40.214270,-15.892571245697587,0.324373260925016,177.72418597750809,0.009216856211423874,0.27260082960128784,-0.9647873044013977,-0.13629361987113953,-0.000732156855519861,0.004889355972409248
2024-05-13 17:17:40.235746,-16.04652200204238,0.33108867090046085,177.8491374581843,0.015118966810405254,0.28106367588043213,-0.9612446427345276,-0.1324441283941269,0.0015887371264398098,0.0023127191234380007
2024-05-13 17:17:40.253958,-16.197769711023145,0.3338665568606726,177.9765068258267,0.013583209365606308,0.28565600514411926,-0.9617138504981995,-0.1292259246110916,0.0003873197128996253,0.0004121095989830792
2024-05-13 17:17:40.274731,-16.342890740318406,0.33206338691978926,178.10413574065757,0.009296056814491749,0.2841688096523285,-0.9555240869522095,-0.12612752616405487,-0.001521087484434247,0.0018604367505759
2024-05-13 17:17:40.281090,-16.48400244857087,0.3325799466561979,178.220057711251,0.0032419967465102673,0.2841218113899231,-0.9615778923034668,-0.12243250012397766,0.0005203983746469021,0.003502009669318795
2024-05-13 17:17:40.313815,-16.621398533914846,0.333838542412905,178.3340808892552,0.008100548759102821,0.28451451659202576,-0.9610421657562256,-0.12136495858430862,-0.0004644840955734253,0.0038346543442457914
2024-05-13 17:17:40.337268,-16.759586921202544,0.3358030755729299,178.45914165295812,0.013340312987565994,0.2902925908565521,-0.9556058645248413,-0.11949306726455688,-0.0015374466311186552,0.003955733962357044
2024-05-13 17:17:40.355891,-16.89969117655243,0.33682699029862356,178.58830053016308,0.009436224587261677,0.2975112497806549,-0.9584245681762695,-0.11960671097040176,-0.0006323101697489619,0.0020584200974553823
2024-05-13 17:17:40.373368,-17.035960280683355,0.34057844501982665,178.709946199281,0.009915069676935673,0.2949793338775635,-0.9535853862762451,-0.11830780655145645,0.002449612133204937,-0.0001679712877376005
2024-05-13 17:17:40.389014,-17.170890667736955,0.3462769572217329,178.83564900076593,0.012089812196791172,0.2960176169872284,-0.9574892520904541,-0.11569993942975998,0.0015108196530491114,0.0020588005427271128
2024-05-13 17:17:40.415759,-17.297355035314325,0.34449715933441566,178.9588519530146,0.005178897641599178,0.2971811294555664,-0.9572508335113525,-0.1121780276298523,-0.0007918031769804657,0.0036990747321397066
2024-05-13 17:17:40.433790,-17.424304346322767,0.3472761125116853,179.09134396253452,0.013062884099781513,0.30372217297554016,-0.9518985152244568,-0.10929704457521439,-0.00016021577175706625,0.004160101059824228
2024-05-13 17:17:40.447133,-17.546650109830622,0.35359929353795677,179.2107903107397,0.012873535044491291,0.30568772554397583,-0.9539359211921692,-0.10535119473934174,0.0030424450524151325,0.0019184305565431714
2024-05-13 17:17:40.475890,-17.662729174774988,0.35599767711240976,179.32806465878883,0.009242549538612366,0.3078141212463379,-0.9549825191497803,-0.10059277713298798,0.0007017684984020889,0.0019885695073753595
2024-05-13 17:17:40.493257,-17.774440333745133,0.35605437301860615,179.44335825197862,0.01029670238494873,0.3077922463417053,-0.9518193006515503,-0.09760258346796036,-0.0011236872524023056,0.0015461848815903068
2024-05-13 17:17:40.517501,-17.88895870046415,0.3580932111662814,179.56320075115568,0.010061143897473812,0.3082805573940277,-0.9495850205421448,-0.09889911115169525,-0.000371766509488225,0.0021255058236420155
2024-05-13 17:17:40.535865,-18.001240180229992,0.36179813522376375,179.67215592879572,0.007471507415175438,0.3079203963279724,-0.9541125893592834,-0.09787330031394958,0.0018565998179838061,0.0015425377059727907
2024-05-13 17:17:40.545467,-18.10982994274944,0.36449344526412714,179.79598725844806,0.011670522391796112,0.31379544734954834,-0.9510904550552368,-0.09386540204286575,0.0002554359089117497,0.0021680942736566067
2024-05-13 17:17:40.576971,-18.215738856019655,0.3678672385489961,179.9256242488949,0.016823867335915565,0.3182085156440735,-0.9504531025886536,-0.09007272869348526,-0.0009821634739637375,0.002849438227713108
2024-05-13 17:17:40.595039,-18.31878592002764,0.3679797499073162,-179.9450083257594,0.010344075970351696,0.3191071152687073,-0.947458028793335,-0.08872474730014801,-0.0012018091510981321,0.00163270253688097
2024-05-13 17:17:40.604802,-18.412280964481358,0.3687445443313725,-179.82377246799166,0.008248756639659405,0.3171009421348572,-0.9503567814826965,-0.08265747129917145,-0.00021402185666374862,0.000881345709785819
2024-05-13 17:17:40.637844,-18.502314810573175,0.3679064054150179,-179.70414853486807,0.00846836157143116,0.31721818447113037,-0.9492067694664001,-0.07954477518796921,-0.0016891820123419166,0.0013217134401202202
2024-05-13 17:17:40.650568,-18.59528905310268,0.3698352668448853,-179.57503063879815,0.00922088697552681,0.3232763707637787,-0.9458882212638855,-0.07961923629045486,-0.00017697340808808804,0.0013769030338153243
2024-05-13 17:17:40.673937,-18.688241097517384,0.3742522914841944,-179.45047530909378,0.013057195581495762,0.32471829652786255,-0.948615312576294,-0.07962042093276978,0.0005938342656008899,0.0028804740868508816
2024-05-13 17:17:40.697825,-18.77522697169208,0.3759074384191589,-179.34097371632015,0.014391820877790451,0.3214143216609955,-0.9496699571609497,-0.0772697925567627,-0.002181107411161065,0.0030375125352293253
2024-05-13 17:17:40.712496,-18.85843575125576,0.37610490025528104,-179.22936842528213,0.012190514244139194,0.32455548644065857,-0.9458668828010559,-0.07250262051820755,-0.0028786263428628445,0.003170102834701538
2024-05-13 17:17:40.733882,-18.94083856849738,0.37541393057119904,-179.10743588821907,0.006399471778422594,0.3305237293243408,-0.9459118843078613,-0.07032783329486847,-0.0010283690644428134,0.000883026048541069
2024-05-13 17:17:40.757889,-19.020598102530204,0.37832802010841443,-178.97905565257952,0.00895480066537857,0.3330458700656891,-0.9437607526779175,-0.06689994782209396,0.0008671028772369027,0.0007483110530301929
2024-05-13 17:17:40.774563,-19.093928721006755,0.3819856664502356,-178.85552485125066,0.01172266062349081,0.33133071660995483,-0.9460914134979248,-0.0633426308631897,0.0009530064417049289,0.0013120879884809256
2024-05-13 17:17:40.793884,-19.16420624492431,0.3834554377822577,-178.74297699410718,0.011379541829228401,0.32826557755470276,-0.944894015789032,-0.061697691679000854,0.00020020248484797776,0.00021354726050049067
2024-05-13 17:17:40.817906,-19.234512797145833,0.38871196203967007,-178.6281751745376,0.015499134548008442,0.3313300609588623,-0.9470818042755127,-0.059842489659786224,0.0016181602841243148,-2.5855028070509434e-05
2024-05-13 17:17:40.827552,-19.299775254665306,0.38815188652772903,-178.50672075071645,0.010085388086736202,0.33431386947631836,-0.9448583126068115,-0.05621332675218582,-0.0005488323513418436,6.770250183762982e-05
2024-05-13 17:17:40.838669,-19.361272570404807,0.38622948176106137,-178.38582640240722,0.008405669592320919,0.335103303194046,-0.9426988363265991,-0.05282948538661003,-0.002186568919569254,0.0007424342911690474
2024-05-13 17:17:40.883495,-19.418967178323904,0.385203192477414,-178.26769145052268,0.007544823456555605,0.3354313373565674,-0.9433143734931946,-0.0494934543967247,-0.001239308388903737,0.0025387797504663467
2024-05-13 17:17:40.886687,-19.472848833138844,0.3875159852438303,-178.15713800861684,0.009953516535460949,0.3344014883041382,-0.941888689994812,-0.04759030416607857,0.00035534342168830335,0.0023153782822191715
2024-05-13 17:17:40.900454,-19.525246629356594,0.3917155110467567,-178.04771837811325,0.014770003035664558,0.3377540111541748,-0.9425500631332397,-0.04459448903799057,0.0003751887707039714,0.0015323025872930884
2024-05-13 17:17:40.937648,-19.573884406436257,0.39531979653568716,-177.93312146421877,0.014235551469027996,0.33993810415267944,-0.941862165927887,-0.041198477149009705,-0.0003639794886112213,0.0022475419100373983
2024-05-13 17:17:40.946808,-19.61975595690206,0.3942788863783478,-177.82045066367024,0.010214980691671371,0.34014424681663513,-0.9413261413574219,-0.03881646692752838,-0.001945229945704341,0.0013060811907052994
2024-05-13 17:17:40.973887,-19.661464507068747,0.3931124714950095,-177.70986990100775,0.007935483008623123,0.33836016058921814,-0.9433795213699341,-0.036560285836458206,-0.0020274126436561346,0.0010628483723849058
2024-05-13 17:17:40.994366,-19.698846132396223,0.39232067647939045,-177.5923906472835,0.009558035060763359,0.3403668701648712,-0.9419314861297607,-0.03314300253987312,-0.0018517007119953632,0.0019826607313007116
2024-05-13 17:17:41.015686,-19.735172493496936,0.3939764637445896,-177.47584029928643,0.010589728131890297,0.3419744074344635,-0.9410710334777832,-0.029955092817544937,-0.0005870928289368749,0.001768875285051763
2024-05-13 17:17:41.033037,-19.76621228818006,0.39646014464238843,-177.3631694987379,0.013704121112823486,0.34244781732559204,-0.9407086968421936,-0.026788558810949326,9.209343988914043e-05,0.0023441219236701727
2024-05-13 17:17:41.055824,-19.793386195792955,0.39866955075632887,-177.25411869844947,0.011826462112367153,0.34081369638442993,-0.9421080350875854,-0.023577501997351646,-0.001053262734785676,0.002753510372713208
2024-05-13 17:17:41.075525,-19.81765385791401,0.3977250102993102,-177.1382650297477,0.0103354062885046,0.34288138151168823,-0.9399815201759338,-0.020127838477492332,-0.0021875936072319746,0.001602690084837377
2024-05-13 17:17:41.099874,-19.838373236761246,0.3974813112841582,-177.01973392689132,0.010743466205894947,0.3434227406978607,-0.9405762553215027,-0.01741798035800457,-0.002161176409572363,0.001705458853393793
2024-05-13 17:17:41.109044,-19.8558072946177,0.39738395440805907,-176.9042354280264,0.0094106150791049,0.3435436487197876,-0.9405331611633301,-0.014443784952163696,-0.0013594618067145348,0.0018110109958797693
2024-05-13 17:17:41.135871,-19.869042493681896,0.3973748563826412,-176.79254817471835,0.011656766757369041,0.3419022262096405,-0.9412164688110352,-0.011612060479819775,-0.0032205788884311914,0.0016824741614982486
2024-05-13 17:17:41.153538,-19.879999824657887,0.3971763540098877,-176.67886650617265,0.011621334590017796,0.3419245183467865,-0.9405951499938965,-0.01017590519040823,-0.004029716830700636,0.00224380218423903
2024-05-13 17:17:41.169386,-19.890883731100303,0.3965800464788339,-176.56534876216705,0.011041704565286636,0.34359851479530334,-0.9404491782188416,-0.009365222416818142,-0.0020831667352467775,0.0016893218271434307
2024-05-13 17:17:41.180987,-19.896853316434896,0.3969063214138342,-176.4456155460167,0.00991422776132822,0.3462437391281128,-0.9401273131370544,-0.0037455311976373196,-0.0018904961179941893,0.001607938902452588
2024-05-13 17:17:41.213037,-19.89823642974182,0.39719924581577787,-176.3297072358016,0.01147406455129385,0.3436734080314636,-0.9397157430648804,-0.00028891750844195485,-0.0014789366396144032,0.0014515889342874289
2024-05-13 17:17:41.237854,-19.89854037315989,0.3981656375420553,-176.21905817124738,0.010978271253407001,0.34332898259162903,-0.9400461912155151,0.0005020485259592533,-0.0006937417201697826,0.0013293043011799455
2024-05-13 17:17:41.255778,-19.89794273160751,0.39889516044235085,-176.11555348456503,0.011080501601099968,0.3418119549751282,-0.9409540295600891,0.00012731444439850748,-0.0012731649912893772,0.0009074420668184757
2024-05-13 17:17:41.262278,-19.898837486388782,0.3995081699203595,-176.0074589107604,0.010792280547320843,0.3426956534385681,-0.9398143887519836,0.00020550587214529514,-0.001730630174279213,0.0011212085373699665
2024-05-13 17:17:41.297946,-19.898717958078308,0.39966505082785825,-175.90258818624403,0.010387099348008633,0.34302470088005066,-0.9402758479118347,0.0003478271537460387,-0.0003158343897666782,0.0009085402125492692
2024-05-13 17:17:41.306889,-19.898934816584458,0.4004800044536318,-175.79755353718758,0.011274198070168495,0.34290480613708496,-0.9403705596923828,0.0008876606589183211,-0.000908795977011323,0.0005067233578301966
2024-05-13 17:17:41.333738,-19.89923022226606,0.4007817333963024,-175.69074303894692,0.011639822274446487,0.3421310484409332,-0.9404451251029968,0.0001493185991421342,-0.0012139236787334085,0.0004402267513796687
2024-05-13 17:17:41.357882,-19.899418052468235,0.40187637793250275,-175.58445163508318,0.012201905250549316,0.34318575263023376,-0.9392541646957397,4.515875843935646e-05,-0.0005596427363343537,0.0009924222249537706
2024-05-13 17:17:41.368683,-19.898721373172894,0.40509886651900007,-175.4744309479326,0.01168636791408062,0.3455434739589691,-0.9372987747192383,0.0024521497543901205,0.0011672545224428177,-0.00033678949694149196
2024-05-13 17:17:41.393770,-19.89353384449827,0.40893833996704637,-175.37076233671016,0.01125776581466198,0.34466230869293213,-0.9377041459083557,0.005833824165165424,0.0025616162456572056,-0.0008629696676507592
2024-05-13 17:17:41.417881,-19.884961957089903,0.4134104330065386,-175.26802263121482,0.010311366058886051,0.34307861328125,-0.9388654232025146,0.00845695473253727,0.003529742592945695,-0.0023223997559398413
2024-05-13 17:17:41.430946,-19.87274957885392,0.41986776321697744,-175.1694220203565,0.010095415636897087,0.3411146104335785,-0.9405467510223389,0.010436915792524815,0.004830216057598591,5.898019298911095e-05
2024-05-13 17:17:41.453749,-19.86155489880427,0.42765858114115546,-175.07321197570772,0.010085373185575008,0.3426092863082886,-0.9396152496337891,0.011182177811861038,0.00618538586422801,-0.0005664227646775544
2024-05-13 17:17:41.477906,-19.84641919960352,0.4359349828266391,-174.9764145347903,0.012773388996720314,0.34410569071769714,-0.9410791993141174,0.01406632550060749,0.007284283638000488,0.0001196032389998436
2024-05-13 17:17:41.493748,-19.825952537755576,0.4451514960183515,-174.88096947132854,0.012837388552725315,0.3433205187320709,-0.9407070279121399,0.018055159598588943,0.005975887645035982,-0.0010833273408934474
2024-05-13 17:17:41.513739,-19.799366026411302,0.4544374583601012,-174.78589323808197,0.014398513361811638,0.3434019684791565,-0.9422481060028076,0.023767024278640747,0.0054622539319098,-0.00050014175940305
2024-05-13 17:17:41.537874,-19.766461590084766,0.46134096534198576,-174.6942730805554,0.009865464642643929,0.34098097681999207,-0.9428086280822754,0.028684724122285843,0.0052072941325604916,0.0018002204596996307
2024-05-13 17:17:41.555802,-19.729571738377526,0.4704542519637811,-174.60309005513574,0.012059050612151623,0.34136995673179626,-0.9421095848083496,0.03286575525999069,0.0051718479953706264,0.002887433860450983
2024-05-13 17:17:41.573822,-19.68910969773437,0.4787547460743449,-174.50797284075415,0.011615640483796597,0.34352967143058777,-0.9421432018280029,0.03736720234155655,0.006372714415192604,0.0027044680900871754
2024-05-13 17:17:41.597887,-19.642650750999945,0.48673299399430153,-174.4183334380869,0.013584303669631481,0.3409297466278076,-0.9413076639175415,0.04086305946111679,0.004628074821084738,0.0012523469049483538
2024-05-13 17:17:41.607292,-19.591776086967105,0.4940167504138855,-174.33346150746033,0.012634738348424435,0.3401375412940979,-0.9431620836257935,0.04486243054270744,0.004288809839636087,0.0015312546165660024
2024-05-13 17:17:41.618660,-19.5342197903787,0.49818759475838315,-174.25113040720498,0.010243011638522148,0.33659228682518005,-0.942537784576416,0.04955875873565674,0.0031953214202076197,0.00172227097209543
2024-05-13 17:17:41.657540,-19.471267644345986,0.5002309952589806,-174.16593062749826,0.007899360731244087,0.3384939432144165,-0.9445328712463379,0.05488558113574982,0.0013773064129054546,0.0031725019216537476
2024-05-13 17:17:41.665895,-19.405482677355007,0.5036068162562594,-174.07758896077328,0.012072359211742878,0.3389258086681366,-0.9415462017059326,0.05890040844678879,0.000742172182071954,0.002910308539867401
2024-05-13 17:17:41.693859,-19.33529053080208,0.5053081736898273,-173.98596880324675,0.011807363480329514,0.33750924468040466,-0.9424352645874023,0.06257770955562592,-0.0005305625381879508,0.003378600114956498
2024-05-13 17:17:41.713148,-19.26083634620706,0.506281529007407,-173.90262683499424,0.01362244226038456,0.33261844515800476,-0.9444644451141357,0.06462693959474564,-0.0015658973716199398,0.001453536213375628
2024-05-13 17:17:41.735878,-19.184517519968633,0.5094032456232201,-173.81297377194866,0.015587208792567253,0.33372852206230164,-0.9437239766120911,0.06719951331615448,-0.00029801856726408005,0.0004900951171293855
2024-05-13 17:17:41.753447,-19.106870221936635,0.5104261731731353,-173.72647625629963,0.01250491477549076,0.33211395144462585,-0.9450361728668213,0.0698101818561554,-0.0008010681485757232,0.0012781359255313873
2024-05-13 17:17:41.783932,-19.021848027148316,0.5095532963415489,-173.638107268818,0.012720789760351181,0.3323586881160736,-0.9452016949653625,0.07531560957431793,-0.0027954771649092436,0.0022971562575548887
2024-05-13 17:17:41.795751,-18.932171058440634,0.5095857397401063,-173.558521904609,0.01304358709603548,0.3298790454864502,-0.9451581835746765,0.07901071012020111,-0.0011808873387053609,0.0018879672279581428
2024-05-13 17:17:41.806079,-18.84374913699294,0.510423398408785,-173.48550718238158,0.012643293477594852,0.3243768513202667,-0.9453797936439514,0.07740186899900436,-0.001838321564719081,0.0015999089227989316
2024-05-13 17:17:41.837109,-18.75301690405849,0.5091491412417545,-173.41523819620048,0.012627167627215385,0.32394737005233765,-0.9498903155326843,0.07887783646583557,-0.002143888035789132,0.0015545978676527739
2024-05-13 17:17:41.855753,-18.660642010628653,0.5077372130742659,-173.3341501903741,0.012759357690811157,0.3256955146789551,-0.9469951391220093,0.08222890645265579,-0.0031270207837224007,0.0012165510561317205
2024-05-13 17:17:41.868444,-18.562787597937174,0.5053407238100905,-173.24938754277423,0.013373548164963722,0.3238355219364166,-0.9490953087806702,0.08694948256015778,-0.004234466701745987,0.0019488896941766143
2024-05-13 17:17:41.897002,-18.456931618633025,0.5025637183039515,-173.16881863132477,0.01267856452614069,0.32032155990600586,-0.9496150016784668,0.09183947741985321,-0.004146709572523832,0.0021448498591780663
2024-05-13 17:17:41.915102,-18.347319035285366,0.4996695323648644,-173.08917862560241,0.011681259609758854,0.3176453113555908,-0.9475811719894409,0.09526132792234421,-0.005134777165949345,0.0025152789894491434
2024-05-13 17:17:41.931105,-18.234907781925298,0.49728937152167363,-173.01447001646082,0.011718043126165867,0.3167872130870819,-0.9508044719696045,0.09817621111869812,-0.0037261920515447855,0.002117951400578022
2024-05-13 17:17:41.956999,-18.125843321258532,0.4982793220645023,-172.9327536332308,0.01583722233772278,0.3202056288719177,-0.9484211802482605,0.09926804155111313,-0.002287881216034293,-0.0009945579804480076
2024-05-13 17:17:41.975880,-18.011195180945283,0.49404199009730276,-172.8664871379033,0.01115449983626604,0.31333234906196594,-0.9505378007888794,0.1002868264913559,-0.003851751796901226,-0.0006433606613427401
2024-05-13 17:17:41.993503,-17.892534304494653,0.4896007129503549,-172.80288441635216,0.013028308749198914,0.30933916568756104,-0.9514333009719849,0.10318315774202347,-0.005070471204817295,0.0005308936233632267
2024-05-13 17:17:42.017755,-17.775113107378377,0.48695678941132525,-172.7428333931694,0.013487854041159153,0.30654069781303406,-0.9503605961799622,0.10231201350688934,-0.003834469709545374,4.3536274461075664e-05
2024-05-13 17:17:42.033606,-17.65690643850755,0.483774561588334,-172.68203104917797,0.011300915852189064,0.30843573808670044,-0.9539743065834045,0.10372872650623322,-0.00417918898165226,0.0013940657954663038
2024-05-13 17:17:42.053835,-17.53217352388478,0.48146371649304825,-172.60803277971004,0.014238440431654453,0.3094441294670105,-0.9516587853431702,0.11150647699832916,-0.005812878254801035,0.003629125654697418
2024-05-13 17:17:42.076913,-17.400562608767803,0.4764983290490077,-172.5311931515474,0.011294196359813213,0.30747273564338684,-0.9524060487747192,0.11651720106601715,-0.005708406679332256,0.001593327266164124
2024-05-13 17:17:42.088065,-17.26229396675736,0.4712694457133927,-172.46608778837884,0.007956677116453648,0.3019160032272339,-0.9550603032112122,0.11937559396028519,-0.004055784083902836,0.0005473152850754559
2024-05-13 17:17:42.113733,-17.127319183474153,0.469157796681948,-172.40585918027764,0.009060557000339031,0.2945219576358795,-0.9557104110717773,0.116875559091568,-0.0033858143724501133,0.003418808337301016
2024-05-13 17:17:42.137881,-16.99354822103216,0.4648607005595109,-172.34722883644227,0.011225334368646145,0.29343467950820923,-0.9558402895927429,0.11659789830446243,-0.006050494033843279,0.001920746173709631
2024-05-13 17:17:42.149965,-16.85512077712351,0.45874447960117604,-172.272533887679,0.009729991666972637,0.29995235800743103,-0.9564858078956604,0.12337879836559296,-0.006201136391609907,0.001710835611447692
2024-05-13 17:17:42.173716,-16.70981533272066,0.4592261680202206,-172.20272935436148,0.01608835905790329,0.29963427782058716,-0.9566165804862976,0.13019296526908875,-0.004084229469299316,-0.00020034128101542592
2024-05-13 17:17:42.197881,-16.555944831098614,0.45847911607975045,-172.15433063390276,0.014483131468296051,0.2912720739841461,-0.9580864906311035,0.13354867696762085,-0.002008530544117093,-0.0020661307498812675
2024-05-13 17:17:42.212185,-16.404741518347457,0.4532240325653661,-172.11889561248873,0.009726613759994507,0.27757126092910767,-0.9583635330200195,0.13006986677646637,-0.004874808713793755,-0.0004560744855552912
2024-05-13 17:17:42.233809,-16.253988998081518,0.4466579796171624,-172.07473160931545,0.007688484620302916,0.2777141034603119,-0.9601634740829468,0.13075938820838928,-0.005219696555286646,0.0010292665101587772
2024-05-13 17:17:42.257878,-16.104023657117427,0.4464914937561434,-172.00965356690355,0.008656392805278301,0.2835603654384613,-0.9592046737670898,0.13287852704524994,-0.0024433876387774944,0.00237558176741004
2024-05-13 17:17:42.274769,-15.953493117999516,0.44734548084580655,-171.9394665429925,0.01967247761785984,0.2849528193473816,-0.9607467651367188,0.1345699578523636,-0.0030876349192112684,0.0004831742262467742
2024-05-13 17:17:42.293882,-15.80053786172625,0.4459041241679487,-171.87904668959456,0.016445983201265335,0.28298136591911316,-0.9560165405273438,0.1372772604227066,-0.0031403691973537207,0.0005443551344797015
2024-05-13 17:17:42.318009,-15.63160337788974,0.4423043209906611,-171.83156321448465,0.012537561357021332,0.27401411533355713,-0.9672346711158752,0.14590957760810852,-0.003983290400356054,-0.00014667992945760489
2024-05-13 17:17:42.326596,-15.459846318378721,0.4367985215089697,-171.79111483421983,0.010239385068416595,0.2660171687602997,-0.9674673676490784,0.14723677933216095,-0.005954763386398554,0.0005506068700924516
2024-05-13 17:17:42.338608,-15.295872259426933,0.42837705834490264,-171.74450562332368,0.009108406491577625,0.26494109630584717,-0.9631056189537048,0.14375002682209015,-0.008076825179159641,0.002081487327814102
2024-05-13 17:17:42.377252,-15.130207728655567,0.4201767492356412,-171.6905198081239,0.006053475197404623,0.26743999123573303,-0.9646151065826416,0.146759495139122,-0.006450868211686611,0.002150610089302063
2024-05-13 17:17:42.386637,-14.96018553719373,0.42267441067689737,-171.63912946480872,0.012605230323970318,0.265728622674942,-0.9630553722381592,0.14993461966514587,-0.001050440245307982,0.0003284002305008471
2024-05-13 17:17:42.399553,-14.790740496716761,0.42437702209050815,-171.59648176363115,0.01415135059505701,0.2611553370952606,-0.9651511907577515,0.1486140489578247,-0.001902183284983039,0.0003778665268328041
2024-05-13 17:17:42.437187,-14.618146739032417,0.4163900496711038,-171.56035006292177,0.010125228203833103,0.2529928386211395,-0.9686347246170044,0.15020398795604706,-0.007054336369037628,0.0017173506785184145
2024-05-13 17:17:42.446630,-14.438806461995393,0.40997615519491803,-171.51009353100883,0.007889857515692711,0.25527068972587585,-0.9712812900543213,0.15700837969779968,-0.006184736266732216,0.0018084980547428131
2024-05-13 17:17:42.474319,-14.256495052669413,0.40933171617455677,-171.45799284801996,0.010315747000277042,0.25428807735443115,-0.9653652310371399,0.1606053113937378,-0.0024109838996082544,0.00048082234570756555
2024-05-13 17:17:42.495352,-14.07221825640976,0.4076987940348213,-171.41799526024036,0.008042829111218452,0.25063130259513855,-0.9691070318222046,0.16232670843601227,-0.0016101320507004857,7.209117757156491e-05
2024-05-13 17:17:42.515238,-13.885665299609203,0.40393421254380707,-171.38904891853787,0.009270315058529377,0.24336743354797363,-0.9723194241523743,0.16314922273159027,-0.004046826623380184,0.0005648700171150267
2024-05-13 17:17:42.533228,-13.697638729495214,0.4016326789173508,-171.3720690682612,0.01232133898884058,0.23612739145755768,-0.9701653122901917,0.16258278489112854,-0.003249198431149125,0.00018092687241733074
2024-05-13 17:17:42.555830,-13.511885758601194,0.40160098257073373,-171.34704325514227,0.01258169487118721,0.23455658555030823,-0.9730075597763062,0.16144877672195435,-0.002972076181322336,0.0021260343492031097
2024-05-13 17:17:42.574869,-13.326186575446886,0.3983789208710595,-171.30393110110117,0.015517991967499256,0.23776023089885712,-0.9720693230628967,0.16378849744796753,-0.006249931640923023,0.0022729227785021067
2024-05-13 17:17:42.590121,-13.137712627942262,0.3955665904803068,-171.2534013616214,0.013318521901965141,0.24179159104824066,-0.9691188335418701,0.16836613416671753,-0.005258479621261358,-0.0011550337076187134
2024-05-13 17:17:42.616918,-12.93601628797814,0.39164376738004514,-171.22471456710736,0.0069801341742277145,0.23095202445983887,-0.9752270579338074,0.17613013088703156,-0.003559396369382739,0.0012126389192417264
2024-05-13 17:17:42.635800,-12.726782834264908,0.38731123965128855,-171.2105350943904,0.00659824488684535,0.2199314385652542,-0.9780825972557068,0.179781973361969,-0.005301822908222675,0.0023873839527368546
2024-05-13 17:17:42.649916,-12.52519919242209,0.38021104456564875,-171.19871886712627,0.010695727542042732,0.2167508900165558,-0.9739559292793274,0.17572978138923645,-0.006834506057202816,-0.0002497718087397516
2024-05-13 17:17:42.683777,-12.325446895050483,0.38080463069320514,-171.1773950165375,0.012916659004986286,0.2194654643535614,-0.9758676290512085,0.1761867254972458,-0.0026626032777130604,0.0006826203898526728
2024-05-13 17:17:42.695756,-12.128401060137492,0.3840398458431169,-171.1460990897605,0.015383210964500904,0.218722403049469,-0.9753708243370056,0.17493586242198944,-0.0029057194478809834,0.0011739867040887475
2024-05-13 17:17:42.712194,-11.928086125933005,0.37817436753251554,-171.1283132771618,0.00895446166396141,0.21227261424064636,-0.9789927005767822,0.17625509202480316,-0.004494388122111559,-0.001056772656738758
2024-05-13 17:17:42.737145,-11.720075276081205,0.37047002087044695,-171.1167429367078,0.0033297822810709476,0.20377205312252045,-0.9789174795150757,0.17931406199932098,-0.00615558261051774,0.0021809760946780443
2024-05-13 17:17:42.755875,-11.517204997353486,0.36841349360003844,-171.09918935054085,0.005409281700849533,0.2025352418422699,-0.9809253215789795,0.1782689392566681,-0.0028448710218071938,0.003855770453810692
2024-05-13 17:17:42.765459,-11.31037320890716,0.36946208772019407,-171.08252368896603,0.009974328801035881,0.20625010132789612,-0.9830114841461182,0.18314753472805023,-0.0018824823200702667,-0.0006772059132345021
2024-05-13 17:17:42.797831,-11.099582472063165,0.3688404604644436,-171.0587956117894,0.0181854497641325,0.2023317962884903,-0.9780071973800659,0.18617457151412964,-0.004186664242297411,0.0007971668383106589
2024-05-13 17:17:42.815792,-10.884168550924718,0.37011164938243285,-171.0496431583016,0.018531132489442825,0.1925118863582611,-0.9834930300712585,0.1867803931236267,-0.0041141207329928875,0.0008645720663480461
2024-05-13 17:17:42.824407,-10.661354973594209,0.3633108887227893,-171.05283968683315,0.006002435460686684,0.18516743183135986,-0.9832795262336731,0.19336605072021484,-0.004171328619122505,0.000683403224684298
2024-05-13 17:17:42.857767,-10.439977443536694,0.3604562164952678,-171.05520293228597,0.007461960427463055,0.18473099172115326,-0.9808316826820374,0.19276843965053558,-0.0020225616171956062,-0.0021380765829235315
2024-05-13 17:17:42.869372,-10.223357140236093,0.3573092601960373,-171.04782632798236,0.0052263461984694,0.18411073088645935,-0.9882404804229736,0.1910519003868103,-0.0027120455633848906,0.0011813030578196049
2024-05-13 17:17:42.898937,-10.002630185697022,0.35026720175962195,-171.04349598804856,0.007971217855811119,0.18029168248176575,-0.9806491732597351,0.19399210810661316,-0.006463825702667236,0.0005361436051316559
2024-05-13 17:17:42.917743,-9.783667981284754,0.34862905025630314,-171.03737613855225,0.017158987000584602,0.17568457126617432,-0.9825460910797119,0.19248366355895996,-0.005797301884740591,-0.0018965872004628181
2024-05-13 17:17:42.930919,-9.562594394645304,0.34793071677452225,-171.0494109318698,0.010506663471460342,0.16666968166828156,-0.9861232042312622,0.19285641610622406,-0.0029872285667806864,0.0009596119052730501
2024-05-13 17:17:42.953914,-9.340631175866461,0.3431387787828029,-171.04726625247042,0.004465286619961262,0.16884414851665497,-0.9836001992225647,0.19532302021980286,-0.003439041320234537,0.0015400670235976577
2024-05-13 17:17:42.976978,-9.114242848279096,0.3392145949807926,-171.04625538447326,0.008450516499578953,0.1643712818622589,-0.9906443357467651,0.19841842353343964,-0.00378407072275877,0.0006977050215937197
2024-05-13 17:17:43.013146,-8.650311640416088,0.3343061702472129,-171.04331840313014,0.017634574323892593,0.15823224186897278,-0.9867290258407593,0.20465613901615143,-0.004325594753026962,-0.00030310219153761864
2024-05-13 17:17:43.037853,-8.413328835652388,0.33345279680735795,-171.06699183879343,0.012056559324264526,0.15018317103385925,-0.9887551069259644,0.20602048933506012,-0.002055760705843568,-0.002522822469472885
2024-05-13 17:17:43.041171,-8.178936380131415,0.33044689992274406,-171.08958610456781,0.012673649936914444,0.14317844808101654,-0.9891324043273926,0.20302166044712067,-0.004891471471637487,0.0018402072601020336
2024-05-13 17:17:43.073450,-7.943709787758052,0.32515587787393785,-171.10416172825663,0.005355761852115393,0.13828852772712708,-0.9920210838317871,0.2051713764667511,-0.004907611291855574,0.003375700442120433
2024-05-13 17:17:43.088143,-7.708627483130907,0.31575711068917717,-171.10771342662503,0.004142092540860176,0.14302584528923035,-0.9909976720809937,0.20811089873313904,-0.006210605148226023,0.001338799251243472
2024-05-13 17:17:43.100663,-7.4664742251655065,0.31449115113477116,-171.10772708700338,0.011396314017474651,0.144776850938797,-0.9891167283058167,0.21432526409626007,-0.002941983286291361,-0.0012109177187085152
2024-05-13 17:17:43.133740,-7.222373509513005,0.3144867488644077,-171.1304716169395,0.010126857087016106,0.13095329701900482,-0.9923582673072815,0.21316911280155182,-0.002217574045062065,-0.0005021303659304976
2024-05-13 17:17:43.150501,-6.9790548505204715,0.30919180479291397,-171.17389795968245,0.00879112258553505,0.11389373242855072,-0.993356466293335,0.20780931413173676,-0.0045638130977749825,0.0001992350589716807
2024-05-13 17:17:43.175726,-6.741199915977124,0.307845510474481,-171.2055217355396,0.008334477432072163,0.11335567384958267,-0.9932340979576111,0.20475731790065765,-0.00336983660236001,0.0007989545119926333
2024-05-13 17:17:43.193936,-6.512027432529333,0.30237599637275525,-171.21345841535518,0.002284703077748418,0.12554897367954254,-0.9933617115020752,0.20604930818080902,-0.0022021043114364147,-0.0018612397834658623
2024-05-13 17:17:43.212442,-6.275028406066353,0.3052333099624949,-171.2228157745181,0.016970194876194,0.12402813881635666,-0.9911258816719055,0.20971724390983582,-0.0025108130648732185,-0.0023387351538985968
2024-05-13 17:17:43.235726,-6.036830254517213,0.3024075859976666,-171.2526500408127,0.007408090867102146,0.11002896726131439,-0.9939096570014954,0.20913568139076233,-0.0032898050267249346,0.0005181626765988767
2024-05-13 17:17:43.253945,-5.78048727855111,0.2987681623871076,-171.30246944061878,0.013573672622442245,0.09647861868143082,-0.9986214637756348,0.21865005791187286,-0.0041406117379665375,3.4616397897480056e-05
2024-05-13 17:17:43.274574,-5.528631309982883,0.29764227507153973,-171.3264024234705,0.006481354124844074,0.10644806176424026,-0.9934630990028381,0.2216574102640152,-0.0020109135657548904,-0.001968422206118703
2024-05-13 17:17:43.280243,-5.280093532690813,0.2899750675630831,-171.35622302938677,0.011236878111958504,0.10234423726797104,-0.9963542222976685,0.21927206218242645,-0.006994236260652542,-0.0023489906452596188
2024-05-13 17:17:43.313849,-5.032874835682201,0.28502366066249984,-171.38575676735792,0.007155998609960079,0.09734070301055908,-0.9923915266990662,0.21767115592956543,-0.005493884440511465,-0.0008387290872633457
2024-05-13 17:17:43.337262,-4.778278253709507,0.2805156824494386,-171.44653179059267,0.0038545792922377586,0.0791441947221756,-0.9969233870506287,0.21954500675201416,-0.003881817916408181,-0.0019687539897859097
2024-05-13 17:17:43.355747,-4.527033587071996,0.2822438003507311,-171.50290817200198,0.008578862994909286,0.07727383077144623,-0.9955517053604126,0.21584822237491608,-0.0009068676736205816,-0.0022112135775387287
2024-05-13 17:17:43.373345,-4.289899664372908,0.2811607618000345,-171.53179987219113,0.010268943384289742,0.08027922362089157,-0.9996910691261292,0.21032361686229706,-0.0028160791844129562,0.000657461816444993
2024-05-13 17:17:43.389131,-4.050219361773875,0.27649998478472065,-171.56407934620862,0.008331147953867912,0.08159397542476654,-0.9938012957572937,0.21313515305519104,-0.004049684852361679,-0.002315363846719265
2024-05-13 17:17:43.415707,-3.7973960676644447,0.27781183467261267,-171.60129021680683,0.011291715316474438,0.07745479792356491,-0.997711181640625,0.2215597927570343,-0.0006766511942259967,-0.002652619266882539
2024-05-13 17:17:43.433768,-3.536434176272121,0.2762827260721761,-171.65955173042704,0.006557844113558531,0.06248186528682709,-1.0010803937911987,0.2245572805404663,-0.002535453997552395,0.0012394797522574663
2024-05-13 17:17:43.449651,-3.2876208435357235,0.2734755183233008,-171.70831928110093,0.013119778595864773,0.05965639650821686,-0.9996863007545471,0.21735452115535736,-0.004930880386382341,0.0021324874833226204
2024-05-13 17:17:43.462105,-3.038797692402394,0.2671327538640184,-171.76439513418674,0.0034455882851034403,0.052847396582365036,-1.0008794069290161,0.21708130836486816,-0.005007942207157612,0.0013161482056602836
2024-05-13 17:17:43.493680,-2.795409877744513,0.2671317400078135,-171.80741166557948,0.010197005234658718,0.060262516140937805,-0.9947746992111206,0.21567396819591522,-0.0017624353058636189,-0.000726930855307728
2024-05-13 17:17:43.509893,-2.5465683704777886,0.26763397235522096,-171.8603183108904,0.006504702847450972,0.05327539145946503,-0.9987947940826416,0.21911203861236572,-0.0017830447759479284,-0.002826306503266096
2024-05-13 17:17:43.535804,-2.2909969924444864,0.2667688328473036,-171.92139386244864,0.0072896238416433334,0.04296809062361717,-0.9980149865150452,0.22224679589271545,-0.0017907433211803436,0.0014595137909054756
2024-05-13 17:17:43.553734,-2.0340638454454125,0.2636472496336227,-171.9841086594077,0.004551212769001722,0.03862961009144783,-1.0035779476165771,0.22475890815258026,-0.0027540503069758415,0.0002983308513648808
2024-05-13 17:17:43.583918,-1.7725138107325276,0.2664929305574322,-172.04119538049068,0.013456249609589577,0.035929784178733826,-0.9970393180847168,0.22863538563251495,-0.0009020821889862418,-0.0007549023721367121
2024-05-13 17:17:43.595908,-1.5173794580844002,0.272198726515758,-172.09795425249348,0.01232446450740099,0.03704626485705376,-1.0021034479141235,0.22538389265537262,0.000523219583556056,-0.0012088068760931492
2024-05-13 17:17:43.605597,-1.2611334921488533,0.27224408324071514,-172.1740698806041,0.01318854559212923,0.0192253477871418,-1.0002317428588867,0.2226756066083908,-0.002095226664096117,0.002178514376282692
2024-05-13 17:17:43.637955,-1.007515334774763,0.2675198068104613,-172.2491609803392,0.002752625150606036,0.015719907358288765,-1.0001811981201172,0.21886618435382843,-0.0029688242357224226,0.0030709111597388983
2024-05-13 17:17:43.650573,-0.7544237422969983,0.26571503604399116,-172.31284566416042,0.010641309432685375,0.0179583840072155,-1.0009565353393555,0.22259587049484253,-0.0027352392207831144,7.905355596449226e-05
2024-05-13 17:17:43.673778,-0.5064538845622439,0.26888021507448384,-172.36429064898897,0.010144684463739395,0.023105518892407417,-0.9960768818855286,0.21979036927223206,-0.00043287037988193333,0.0009755039936862886
2024-05-13 17:17:43.697867,-0.2551840582825951,0.26843593261331566,-172.42173253990876,0.013368593528866768,0.014522445388138294,-1.0032719373703003,0.22275376319885254,-0.0028786230832338333,0.0014375385362654924
2024-05-13 17:17:43.712502,0.009111068811347024,0.2633625161225978,-172.51178175392621,0.0024495753459632397,-0.003019861876964569,-0.9964422583580017,0.22647693753242493,-0.0023202907759696245,0.001491335453465581
2024-05-13 17:17:43.733856,0.2709052861221133,0.26029269293622087,-172.5880203254419,0.004164966754615307,-0.0007112383609637618,-1.002089500427246,0.22865237295627594,-0.0015848680632188916,-0.0006702744867652655
2024-05-13 17:17:43.757866,0.5240484518641968,0.267115838473652,-172.66074817972418,0.011761527508497238,-0.0024682029616087675,-0.9962337017059326,0.2227529138326645,0.0012833790387958288,-0.0008206357597373426
2024-05-13 17:17:43.774689,0.773078002776508,0.26625117921341074,-172.73247882638768,0.005841879174113274,-0.0017948970198631287,-1.0031566619873047,0.2217678278684616,-0.00041596541996113956,0.0008969046757556498
2024-05-13 17:17:43.799135,1.0295079035719692,0.2689610567666133,-172.8305466824907,0.01372724212706089,-0.018726952373981476,-1.0002261400222778,0.22221694886684418,-0.0014758098404854536,0.002767314203083515
2024-05-13 17:17:43.817798,1.2887609670113203,0.2648569668490819,-172.9285325763237,0.0015244329115375876,-0.022661834955215454,-1.0002367496490479,0.22356300055980682,-0.0014469105517491698,0.001849123276770115
2024-05-13 17:17:43.827670,1.5427278909199043,0.27058885626447127,-173.01213409176466,0.018021387979388237,-0.021205345168709755,-0.9981712102890015,0.22319060564041138,-0.0016624955460429192,0.0003394598315935582
2024-05-13 17:17:43.838569,1.7952526844182637,0.26972721189241833,-173.09431492785825,0.001077489578165114,-0.02071605995297432,-1.0014063119888306,0.22315852344036102,-1.583964331075549e-05,6.700660014757887e-05
2024-05-13 17:17:43.877329,2.0516906427025114,0.27053456159665495,-173.18064851896722,0.015175697393715382,-0.02876473031938076,-1.0013995170593262,0.2242913544178009,-0.0022831768728792667,0.00022563207312487066
