sTimestamp,sRoll,sPitch,sYaw,sAcc_x,sAcc_y,sAcc_z,sGyro_x,sGyro_y,sGyro_z
2024-05-13 17:19:43.508105,0.38671004960219524,0.056649288821288245,171.20314482970846,0.005669122561812401,-0.004365725442767143,-1.000616192817688,0.0010568624129518867,-0.0013166364515200257,0.000588921015150845
2024-05-13 17:19:43.534047,0.38675329857346313,0.057041257636303674,171.19783094253418,0.005339611321687698,-0.004386927466839552,-1.000798225402832,5.842551036039367e-05,-0.0016803308390080929,0.0010664021829143167
2024-05-13 17:19:43.541335,0.3860656639426868,0.05719874552350404,171.1956452819998,0.005546571221202612,-0.0041421507485210896,-1.0002561807632446,0.0005507533787749708,-0.0015811497578397393,0.000648132583592087
2024-05-13 17:19:43.577062,0.38564603419555415,0.05745998024893719,171.1925853572516,0.005388489458709955,-0.004443739540874958,-1.00077223777771,0.0005643614567816257,-0.0013124041724950075,0.0005830457666888833
2024-05-13 17:19:43.586201,0.38487214174608,0.05758088927148096,171.18632890397188,0.005414052400738001,-0.004376733209937811,-0.9999986290931702,0.00020259100710973144,-0.0014286271762102842,0.0007535508484579623
2024-05-13 17:19:43.597429,0.38428498560129687,0.057266500466462034,171.18162973382292,0.0054628183133900166,-0.004229724872857332,-1.0005179643630981,-0.0003356406814418733,-0.0014366988325491548,0.001852810732088983
2024-05-13 17:19:43.637115,0.3844825808395512,0.057599705642231554,171.1790342619383,0.00556567357853055,-0.004358470905572176,-1.0003087520599365,0.0006387520115822554,-0.000738111324608326,0.0009008088381960988
2024-05-13 17:19:43.648934,0.38425107477928483,0.05831372721476234,171.1774906391859,0.005465457681566477,-0.004292110912501812,-1.000298261642456,0.0006205671816132963,-0.0019564032554626465,0.0007543666870333254
2024-05-13 17:19:43.672983,0.383975092448134,0.05736491788951237,171.1786244505881,0.0054012746550142765,-0.00444624712690711,-1.0006312131881714,0.0003424950991757214,-0.002058307407423854,0.0010544935939833522
2024-05-13 17:19:43.697210,0.3837390507153719,0.05793149675539947,171.17634316740532,0.005627969279885292,-0.004189237952232361,-1.0003070831298828,0.0009754103957675397,-0.002366821514442563,0.0017887168796733022
2024-05-13 17:19:43.711670,0.3833505036650481,0.05832674726286768,171.17301003509036,0.005599374417215586,-0.004152341280132532,-1.001036524772644,0.0007375150453299284,-0.0015048300847411156,0.002027500420808792
2024-05-13 17:19:43.732929,0.38325685536822485,0.05817798387511495,171.1697452046671,0.005479728803038597,-0.004715931601822376,-1.0005817413330078,0.0008520465344190598,-0.0012460334692150354,0.0010972950840368867
2024-05-13 17:19:43.762313,0.38377149411392947,0.05878293586433709,171.1697452046671,0.005700807552784681,-0.004370921291410923,-1.0012047290802002,0.0012022503651678562,-0.0016415989957749844,0.000524879083968699
2024-05-13 17:19:43.774029,0.3833584010712759,0.058841752864435895,171.16892558196668,0.0055351159535348415,-0.004400209523737431,-1.0008500814437866,0.0011465135030448437,-0.0006773258210159838,0.0008690787944942713
2024-05-13 17:19:43.792948,0.38264939541891685,0.058314854462779654,171.1628193928487,0.005974219646304846,-0.004236592445522547,-1.0012974739074707,0.0003155834856443107,-0.0017826467519626021,0.0006375940283760428
2024-05-13 17:19:43.817054,0.3821488706188019,0.05807813237914318,171.15627607162384,0.005500308237969875,-0.004169354680925608,-1.0009899139404297,0.00034735092776827514,-0.0023227003403007984,0.0005367674166336656
2024-05-13 17:19:43.825691,0.38218336841019573,0.05826580249875986,171.1530932034706,0.005645325873047113,-0.004414946306496859,-1.0010358095169067,0.0004999941447749734,-0.0020801157224923372,0.0010317763080820441
2024-05-13 17:19:43.837835,0.38119104330941334,0.057174006098082576,171.1533664110374,0.0056267231702804565,-0.004212966188788414,-1.000847339630127,0.0002612574608065188,-0.002454729750752449,0.0007422300986945629
2024-05-13 17:19:43.876529,0.38134128079072716,0.05664722108823873,171.1563033923805,0.005411473102867603,-0.004455159418284893,-1.0008814334869385,0.0007316507981158793,-0.0020518102683126926,0.0009584337822161615
2024-05-13 17:19:43.884945,0.3808566308443472,0.057465909973714674,171.155278864005,0.005579674616456032,-0.0042406534776091576,-1.0009102821350098,-9.246496483683586e-05,-0.001191860530525446,0.0006889277137815952
2024-05-13 17:19:43.898820,0.38071805270938996,0.05743333317302488,171.1502245240192,0.005167576018720865,-0.004390107002109289,-1.0006951093673706,0.0007159597589634359,-0.0019480655901134014,0.0001562856778036803
2024-05-13 17:19:43.936639,0.38146072905992306,0.057759474705892995,171.14567561803196,0.005454386118799448,-0.004405238199979067,-1.0003741979599,0.0011845635017380118,-0.0018006936879828572,0.002436539391055703
2024-05-13 17:19:43.946301,0.3810629772624756,0.05754095534319886,171.14577124068035,0.005465568043291569,-0.0041487980633974075,-1.000669002532959,0.0005663137417286634,-0.0012703242246061563,0.0016660351539030671
2024-05-13 17:19:43.979037,0.3808702378618343,0.05751689626865176,171.14638595770563,0.005252080038189888,-0.004216680768877268,-1.000216007232666,0.0004693482769653201,-0.0018377037486061454,0.0011566437315195799
2024-05-13 17:19:43.993284,0.38085249537824817,0.05761183189605097,171.14496527835828,0.0053415801376104355,-0.004195050336420536,-1.0006781816482544,0.0008469747845083475,-0.0014370641438290477,0.0005398450302891433
2024-05-13 17:19:44.014947,0.3797293561466042,0.058021503174012896,171.14226052344696,0.005170952063053846,-0.004452442284673452,-1.0005578994750977,0.00018280072254128754,-0.0015166120138019323,0.0007095460314303637
2024-05-13 17:19:44.032256,0.37918747668549885,0.0578512286924386,171.13578550411378,0.005350534804165363,-0.0042015379294753075,-1.0005775690078735,0.0006267295102588832,-0.001570837921462953,0.0011292650597169995
2024-05-13 17:19:44.055388,0.37985261971678175,0.05830950503727736,171.1295153904557,0.005518984515219927,-0.004316441249102354,-1.0008748769760132,0.0013136272318661213,-0.0014174155658110976,0.0009813569486141205
2024-05-13 17:19:44.074872,0.37910458060053315,0.05849986320985841,171.13395501341623,0.00571258831769228,-0.004180448595434427,-1.0006228685379028,0.0003461411106400192,-0.0009532776894047856,0.0017669772496446967
2024-05-13 17:19:44.092199,0.37909492228615993,0.059590619073904325,171.13667342870588,0.0058481162413954735,-0.004054183140397072,-1.0014050006866455,0.0008670531678944826,-0.0003268857253715396,0.0007846785592846572
2024-05-13 17:19:44.108735,0.37970745151649254,0.05907479304922291,171.13752037216298,0.005636283662170172,-0.0045401109382510185,-1.0005508661270142,0.0013251964701339602,-0.0006815027445554733,0.0014680377207696438
2024-05-13 17:19:44.119480,0.3792284845009454,0.05889029790035323,171.14202829701517,0.005883361212909222,-0.004238981753587723,-1.0011231899261475,0.0010964381508529186,-0.0012784217251464725,0.0007980367518030107
2024-05-13 17:19:44.152781,0.379185208849251,0.05874209480155585,171.14219222155526,0.005639487877488136,-0.004411045927554369,-1.0004271268844604,0.0009007023181766272,-0.0014400954823940992,0.0012414267985150218
2024-05-13 17:19:44.166898,0.3793871796774424,0.05840995684284415,171.14402271225282,0.0055557978339493275,-0.004257003776729107,-1.001194953918457,0.0018900242866948247,-0.0021037294063717127,0.001235747942700982
2024-05-13 17:19:44.180141,0.37988637045623513,0.05892884444646017,171.1439407499828,0.005469049327075481,-0.0044598751701414585,-1.000767707824707,0.001547832740470767,0.00014978396939113736,0.0006738337106071413
2024-05-13 17:19:44.212200,0.37978581192896255,0.05931196870010896,171.14745146721617,0.005498691461980343,-0.004253581166267395,-1.001017451286316,0.0016031732084229589,-0.0009369268664158881,0.0009687083656899631
2024-05-13 17:19:44.228952,0.3809281077067943,0.05882053525530522,171.15096218444955,0.005276973359286785,-0.004116240888834,-1.0010584592819214,0.0017035978380590677,-0.0017467278521507978,0.0013602998806163669
2024-05-13 17:19:44.255076,0.3800540035755913,0.059494843013072084,171.15291561855219,0.005363279953598976,-0.004533651750534773,-1.0008482933044434,0.0007420158945024014,8.180760778486729e-05,0.0024668641854077578
2024-05-13 17:19:44.272113,0.3802912459275435,0.05981714923463867,171.1527243732554,0.005324771162122488,-0.004213192965835333,-1.0007784366607666,0.0014924240531399846,-0.001350488280877471,0.001870425185188651
2024-05-13 17:19:44.296068,0.3804154166322202,0.059837713173321434,171.15037478818093,0.005182676017284393,-0.004243755247443914,-1.0007835626602173,0.000945816223975271,-0.0009829639457166195,0.0014660010347142816
2024-05-13 17:19:44.314937,0.37935145458643205,0.06056482149502367,171.1504021089376,0.005272639915347099,-0.004511569626629353,-1.0007133483886719,0.0007373966509476304,-0.001335418433882296,0.001569146290421486
2024-05-13 17:19:44.325703,0.37952530424515,0.06174505016915411,171.1490360711036,0.005427985452115536,-0.004494618624448776,-1.000834584236145,0.000747380661778152,1.000711927190423e-05,0.0014473542105406523
2024-05-13 17:19:44.356407,0.3802195823021113,0.06182635876874635,171.1498830145607,0.0053528374992311,-0.004514912609010935,-1.0010344982147217,0.00033262011129409075,-0.0010027192765846848,0.00126859440933913
2024-05-13 17:19:44.374430,0.3797440037007227,0.06217556553027647,171.1497873919123,0.0053549837321043015,-0.00410849554464221,-1.0005600452423096,0.0014004759723320603,-0.0015113434055820107,0.0015311820898205042
2024-05-13 17:19:44.385097,0.37910946311857263,0.062180221264691186,171.15032014666758,0.005364561919122934,-0.00436170632019639,-1.001252293586731,0.000346567016094923,-0.0012622179929167032,0.0006985164363868535
2024-05-13 17:19:44.416908,0.37844063818844026,0.0631187586257597,171.15137199579976,0.005699899513274431,-0.004330117255449295,-1.0002859830856323,0.00039147341158241034,-0.0013698219554498792,0.0007132812170311809
2024-05-13 17:19:44.431126,0.37849626687757887,0.06339004520185615,171.14997863720907,0.005660205613821745,-0.004406857304275036,-1.00111722946167,0.000552433542907238,-0.0011430082377046347,0.0010079783387482166
2024-05-13 17:19:44.453112,0.37896314765994626,0.06268036586872934,171.14866724088844,0.005669712089002132,-0.004406456835567951,-1.000403642654419,0.001003117999061942,-0.0019467415986582637,0.0012562653282657266
2024-05-13 17:19:44.477027,0.3783561145974614,0.06183627721727741,171.1487901842935,0.005810200236737728,-0.004232231993228197,-1.0008360147476196,0.0003133226418867707,-0.00253395177423954,0.001183591317385435
2024-05-13 17:19:44.492528,0.3784007776313309,0.06210472899806404,171.14921365602203,0.005550256464630365,-0.004567855503410101,-1.0007388591766357,0.0005287102540023625,-0.0017564950976520777,0.0018861189018934965
2024-05-13 17:19:44.497455,0.3786915942795854,0.06248681938518807,171.15037478818093,0.005966940429061651,-0.00438799150288105,-1.0005629062652588,0.001040679751895368,-0.0012367047602310777,0.0025900749024003744
2024-05-13 17:19:44.537191,0.37825046010873775,0.06327806078195834,171.15034746742424,0.005454959813505411,-0.004402293357998133,-1.0007966756820679,0.0003218978818040341,-0.0012279761722311378,0.0016173584153875709
2024-05-13 17:19:44.546368,0.3774537025337999,0.06369100041215983,171.14470573116984,0.005605180282145739,-0.004187076352536678,-1.0006104707717896,-0.0001653079380048439,-0.0019688522443175316,0.0010070852003991604
2024-05-13 17:19:44.572732,0.37744649881865966,0.06357229919490441,171.14409101414452,0.005568751599639654,-0.00428155018016696,-1.0010477304458618,-0.00013205851428210735,-0.0006476109265349805,0.0015896994154900312
2024-05-13 17:19:44.596184,0.37741685686487886,0.06371678704431927,171.1452384859251,0.0055197980254888535,-0.004248662386089563,-1.0005322694778442,0.0007089150021784008,-0.0011440608650445938,0.0015507906209677458
2024-05-13 17:19:44.605667,0.37749214902830763,0.06305650652075606,171.146440599219,0.005389057099819183,-0.004297798033803701,-1.0010590553283691,0.0007993560284376144,-0.001867850893177092,0.0007424831273965538
2024-05-13 17:19:44.617596,0.3777241620166765,0.06329870476192044,171.14641327846232,0.005043088458478451,-0.004520406015217304,-1.0006476640701294,0.0014353415463119745,-0.0019339167047291994,0.0016125929541885853
2024-05-13 17:19:44.662858,0.37784168929516837,0.0634713004405955,171.14478769343987,0.0052252765744924545,-0.004241929389536381,-1.000882863998413,0.001118671614676714,-0.0015664087841287255,0.0010856339940801263
2024-05-13 17:19:44.666146,0.377428009283133,0.06322810168343941,171.14372218392933,0.005178457126021385,-0.004159270320087671,-1.0007826089859009,0.0006295962957665324,-0.0016746646724641323,0.0014753007562831044
2024-05-13 17:19:44.692033,0.37738705482853935,0.06284431708923609,171.14096278750466,0.0053583490662276745,-0.004410808905959129,-1.0010688304901123,0.00021608039969578385,-0.0018878873670473695,0.0011678989976644516
2024-05-13 17:19:44.712293,0.37837564466961937,0.06328494433198124,171.13857222129516,0.005224381573498249,-0.004285853356122971,-1.000990629196167,0.0006388771580532193,-0.0010235481895506382,0.0013646696461364627
2024-05-13 17:19:44.734906,0.3789962580691649,0.06301863365541686,171.13772527783806,0.005112798418849707,-0.004633024334907532,-1.0008357763290405,0.0008750903070904315,-0.002135051181539893,0.001009643543511629
2024-05-13 17:19:44.753126,0.37844944272916725,0.06333320922342091,171.13840829675507,0.0054980432614684105,-0.004323422908782959,-1.0010260343551636,0.00018662861839402467,-0.0021569665987044573,0.0013817022554576397
2024-05-13 17:19:44.773861,0.37848338023160577,0.06338338843545803,171.13541667389862,0.00536320311948657,-0.004388074390590191,-1.0006251335144043,0.00013825927453581244,-0.0012761839898303151,0.00025868028751574457
2024-05-13 17:19:44.794800,0.3793241605101785,0.0632930885321537,171.1282859564051,0.0056913429871201515,-0.004293379373848438,-1.001103401184082,0.0016875732690095901,-0.0018597235903143883,0.0002891463227570057
2024-05-13 17:19:44.812792,0.3795132980532496,0.06328306336191686,171.12640082419418,0.0055648949928581715,-0.004534601699560881,-1.0005563497543335,0.0010495221940800548,-0.0011244359193369746,0.0009619977790862322
2024-05-13 17:19:44.836495,0.3792052458495115,0.06298200142990738,171.1281083714867,0.005443308502435684,-0.004435008391737938,-1.001036524772644,0.0009145618532784283,-0.0010515174362808466,0.0010648834286257625
2024-05-13 17:19:44.854846,0.37943037528785745,0.06340556653994073,171.12816301300006,0.005820170044898987,-0.00426645390689373,-1.0003522634506226,0.0008351920987479389,-0.0018443563021719456,0.0018054505344480276
2024-05-13 17:19:44.878916,0.37914548169427387,0.06398297098885804,171.12686527705776,0.005557030905038118,-0.004399767145514488,-1.0010234117507935,0.0001591677137184888,-0.0014018301153555512,0.001482218038290739
2024-05-13 17:19:44.888465,0.3791772580821703,0.06429143673920609,171.12488452219844,0.005853611044585705,-0.004290553275495768,-1.0003995895385742,0.000242823880398646,-0.0007149238372221589,0.001071895589120686
2024-05-13 17:19:44.914705,0.37939350293850993,0.06393578665468942,171.1243517674432,0.005620108917355537,-0.004534414038062096,-1.000813364982605,0.00018564157653599977,-0.001302169868722558,0.0008142045116983354
2024-05-13 17:19:44.932770,0.3795512376196549,0.06400048001871281,171.12484354106343,0.0057667940855026245,-0.0043847630731761456,-1.0003734827041626,0.0010134052718058228,-0.0015994274290278554,0.0010982664534822106
2024-05-13 17:19:44.947787,0.3796028108839738,0.06451393148544059,171.12586806943892,0.005448627285659313,-0.004382586106657982,-1.0009578466415405,0.0008344048401340842,0.0004457321483641863,0.0012069217627868056
2024-05-13 17:19:44.975043,0.3793862458625168,0.06330406085752935,171.12549923922376,0.005360928364098072,-0.004612075164914131,-1.0008115768432617,0.00034660310484468937,-0.0018965816125273705,0.0016281836433336139
2024-05-13 17:19:44.992898,0.3791403857328228,0.06380677345261286,171.12379169193125,0.005580262281000614,-0.004182797856628895,-1.0008399486541748,0.0007823918713256717,-0.0007826961809769273,0.001508505316451192
2024-05-13 17:19:45.016916,0.3792787771047949,0.06335741504031346,171.12298572960918,0.0051400368101894855,-0.004261850845068693,-1.0012539625167847,0.0004718037089332938,-0.000863968045450747,0.001659055007621646
2024-05-13 17:19:45.035049,0.3803098421847759,0.06345896741347112,171.11825923870353,0.005465225782245398,-0.004475867375731468,-1.0005247592926025,0.0013917936012148857,-0.0018152127740904689,0.00098276580683887
2024-05-13 17:19:45.044420,0.38037985162376853,0.06310154308059583,171.11554082341388,0.005076382774859667,-0.004309095907956362,-1.001375436782837,0.0013116892660036683,-0.001349264639429748,0.0013671768829226494
2024-05-13 17:19:45.076326,0.3800313785739657,0.06318211796846082,171.11457093655173,0.00556603167206049,-0.004480800591409206,-1.0007319450378418,0.0008200275478884578,-0.0009554006392136216,0.0015148406382650137
2024-05-13 17:19:45.094194,0.3801427693543751,0.062499379195937226,171.11198912504545,0.0055377366952598095,-0.004171888809651136,-1.001226782798767,0.0006411840440705419,-0.002762713236734271,0.0015775759238749743
2024-05-13 17:19:45.104548,0.3797767672643976,0.06264109228100177,171.110363540023,0.005238820798695087,-0.004269947297871113,-1.0010020732879639,0.0008833950851112604,-0.0010617333464324474,0.001321211690083146
2024-05-13 17:19:45.137041,0.3801516539363814,0.06316625645493905,171.11149735142521,0.005540691781789064,-0.004194877576082945,-1.0006481409072876,0.0011859189253300428,-0.00033992313547059894,0.0012023237068206072
2024-05-13 17:19:45.149813,0.38074686756995096,0.06301643252023512,171.11242625715235,0.005384884774684906,-0.004283362068235874,-1.0014268159866333,0.0005432477919384837,-0.0006383561412803829,0.0013474223669618368
2024-05-13 17:19:45.172961,0.38029439421786404,0.062710748204344,171.1140518421748,0.005670905113220215,-0.0043881554156541824,-1.0005804300308228,0.00015733891632407904,-0.0014808038249611855,0.0011829003924503922
2024-05-13 17:19:45.196457,0.3796933642513294,0.06308973032178715,171.11645606876266,0.005531026981770992,-0.0042819189839065075,-1.001380205154419,-0.000492847990244627,-0.0017739387694746256,0.001692852471023798
2024-05-13 17:19:45.211625,0.3808664225608526,0.06245008043797281,171.11604625741245,0.005442888475954533,-0.004526260308921337,-1.0007842779159546,0.0013290195493027568,-0.002079840051010251,0.0011744658695533872
2024-05-13 17:19:45.232913,0.380347648349049,0.06240451693971074,171.117835766975,0.005489151459187269,-0.004252414219081402,-1.0009022951126099,-1.7121896235039458e-05,-0.0017672944813966751,0.0004305026959627867
2024-05-13 17:19:45.257047,0.3799062740543634,0.06192675721346025,171.11615554043917,0.005396323278546333,-0.0044232262298464775,-1.0010042190551758,-0.00024609416141174734,-0.0018441856373101473,0.000147664628457278
2024-05-13 17:19:45.273803,0.37961313620900816,0.06105512102170348,171.1194067104841,0.005666722077876329,-0.004243483766913414,-1.000508189201355,0.000573441619053483,-0.0015936095733195543,0.0022429130040109158
2024-05-13 17:19:45.293053,0.3799174798334704,0.06055088097220597,171.11529493660376,0.0055804443545639515,-0.004177750088274479,-1.0013086795806885,0.0006001966539770365,-0.0014483019476756454,0.0018143411725759506
2024-05-13 17:19:45.317011,0.37963650826257433,0.062019458355144656,171.111688596722,0.0054700253531336784,-0.0043531786650419235,-1.0007362365722656,0.0003041829913854599,-0.001478221151046455,0.001127936178818345
2024-05-13 17:19:45.326398,0.3788322268073789,0.061499410152978266,171.10936633240416,0.0056952922604978085,-0.003863241523504257,-1.001321792602539,0.0002509171608835459,-0.0013293877709656954,0.0017660479061305523
2024-05-13 17:19:45.337755,0.3794849367599382,0.06106261155142802,171.10692112468132,0.005393337458372116,-0.004440876189619303,-1.0009914636611938,0.0009688883437775075,-0.0016945869429036975,0.0012347158044576645
2024-05-13 17:19:45.376499,0.3796015835843573,0.06131337420948137,171.1063337284127,0.005678465589880943,-0.004163249395787716,-1.0009305477142334,0.0011780323693528771,-0.0011230107629671693,0.001178156933747232
2024-05-13 17:19:45.384746,0.3800869805826778,0.06089899383625184,171.1079729738135,0.0052087870426476,-0.004353122320026159,-1.001491904258728,0.0008574396488256752,-0.0013333286624401808,0.0016489395638927817
2024-05-13 17:19:45.398751,0.3810170869289896,0.06028008798399877,171.10891553991897,0.005746191833168268,-0.004374925512820482,-1.0006986856460571,0.0010279648704454303,-0.0013336676638573408,0.0013437835732474923
2024-05-13 17:19:45.436706,0.38094320882816235,0.06007500221601988,171.1073992379232,0.005440813954919577,-0.004151690285652876,-1.0012844800949097,0.0010601812973618507,-0.001791062531992793,0.001360050868242979
2024-05-13 17:19:45.446520,0.381074263082862,0.05934471892357064,171.1072899548965,0.0054776631295681,-0.004593676887452602,-1.0009222030639648,0.0005182928289286792,-0.002362440573051572,0.0012785723665729165
2024-05-13 17:19:45.473035,0.3810482763475042,0.0598900401596874,171.10757682284162,0.005443032365292311,-0.004302180837839842,-1.0008958578109741,0.0003913185209967196,-0.0007929291459731758,0.0007507741102017462
2024-05-13 17:19:45.493502,0.38026197749973295,0.059716537346513214,171.10656595484448,0.005375662352889776,-0.004410948604345322,-1.0007268190383911,-0.0004292117082513869,-0.001591873588040471,0.00033001293195411563
2024-05-13 17:19:45.514972,0.3808117010062132,0.059855675770425776,171.1087652757572,0.005506481509655714,-0.004441321827471256,-1.0007712841033936,0.0006223252275958657,-0.0018880792194977403,0.0010741155128926039
2024-05-13 17:19:45.532753,0.3803711004438945,0.059207714933773706,171.10588293592747,0.005437338724732399,-0.004348373506218195,-1.000614881515503,0.0005967088509351015,-0.001213949522934854,0.0011123864678665996
2024-05-13 17:19:45.555111,0.379870068715677,0.0592030058385061,171.10342406782627,0.005404335912317038,-0.004610355943441391,-1.0008087158203125,-0.0001045363605953753,-0.0018573723500594497,0.0018230394925922155
2024-05-13 17:19:45.575064,0.37966305528688743,0.05962686443323035,171.1010881431301,0.005391016602516174,-0.00468993978574872,-1.0005203485488892,0.000323905551340431,-0.0012414283119142056,0.0011284048669040203
2024-05-13 17:19:45.592204,0.37928891566684414,0.05947296506338689,171.1009515393467,0.00553175201639533,-0.004424882587045431,-1.000702977180481,0.0003490532690193504,-0.0007776222773827612,0.000902888597920537
2024-05-13 17:19:45.616445,0.37959523364286335,0.05939216339189711,171.10140233183193,0.005627550184726715,-0.004477303475141525,-1.000191330909729,0.000647256092634052,-0.0017958582611754537,0.0010385166388005018
2024-05-13 17:19:45.634938,0.38109352635075555,0.05941762318883259,171.10334210555624,0.005662962794303894,-0.004437616094946861,-1.0009541511535645,0.001645789248868823,-0.0013894295552745461,0.0012012359220534563
2024-05-13 17:19:45.648628,0.3818492761102469,0.0590986653607849,171.10386119993314,0.005577546544373035,-0.004333606455475092,-1.000218152999878,0.0016063679940998554,-0.0012880666181445122,0.002042941050603986
2024-05-13 17:19:45.676127,0.3818999155596402,0.06008087190983786,171.1039431622032,0.005775888450443745,-0.0042084562592208385,-1.000756859779358,0.0008793079759925604,-0.0009259033249691129,0.0009798376122489572
2024-05-13 17:19:45.695040,0.38214999119671256,0.06024767126586765,171.10110180350847,0.005769344978034496,-0.004301224369555712,-1.0007280111312866,0.0009718448272906244,-0.0008754262235015631,0.0008391598239541054
2024-05-13 17:19:45.711220,0.3824330972017243,0.06062796072420662,171.1024815017208,0.005766349378973246,-0.004324014764279127,-1.000632405281067,0.001260813558474183,-0.0011924469145014882,0.001458542188629508
2024-05-13 17:19:45.736850,0.3828262332853967,0.06045483810710928,171.10328746404286,0.005415450315922499,-0.0043847328051924706,-1.00153386592865,0.0009781916160136461,-0.0020464444532990456,0.0018670628778636456
2024-05-13 17:19:45.755036,0.3821489773405076,0.06060951787942626,171.10181214318214,0.005590545944869518,-0.004071902483701706,-1.0005252361297607,0.0006425100145861506,-0.0017345576779916883,0.001393855200149119
2024-05-13 17:19:45.773711,0.3828385062815616,0.0602668144718422,171.0982467844354,0.005254033952951431,-0.00413160165771842,-1.0015044212341309,0.0010888460092246532,-0.0016783816972747445,0.0010630808537825942
2024-05-13 17:19:45.797040,0.3828308756795982,0.060375984106750005,171.093370029368,0.00548202870413661,-0.004532930441200733,-1.000624656677246,0.0006395075470209122,-0.0014394937315955758,0.0012706834822893143
2024-05-13 17:19:45.812052,0.38192043280757665,0.060481064966305065,171.0930285199095,0.005488940980285406,-0.004102375358343124,-1.0012913942337036,0.0006117558805271983,-0.0009125639335252345,0.0009748946176841855
2024-05-13 17:19:45.817462,0.3818654711290992,0.05985924427746284,171.0957605955775,0.005450278986245394,-0.004320548847317696,-1.0008949041366577,0.0012794252252206206,-0.0011553041404113173,0.001667512464337051
2024-05-13 17:19:45.856692,0.3823934234076,0.05968364705081269,171.09765938816676,0.005603141617029905,-0.004166196100413799,-1.0009515285491943,0.0010929724667221308,-0.0009550534887239337,0.0015443951124325395
2024-05-13 17:19:45.867849,0.38297524346709405,0.06000204458990503,171.0970173503848,0.005235749762505293,-0.004499017260968685,-1.0006827116012573,0.0013675367226824164,-0.0009927473729476333,0.0011336402967572212
2024-05-13 17:19:45.877734,0.38276137316870806,0.060192336061419965,171.0996811241611,0.005349387414753437,-0.004325713496655226,-1.0006648302078247,0.0013653390342369676,-0.0014514302602037787,0.0009801776614040136
2024-05-13 17:19:45.916643,0.38277031111156723,0.06124658643198201,171.0977003693018,0.005381014663726091,-0.004487441852688789,-1.0010277032852173,0.0011395757319405675,-0.0006019777501933277,0.0008572369697503746
2024-05-13 17:19:45.930212,0.3832720365308723,0.0606245923203679,171.0997494260528,0.005339484196156263,-0.004244854673743248,-1.0002564191818237,0.0012314944760873914,-0.0012036203406751156,0.0011731850681826472
2024-05-13 17:19:45.953031,0.38362907399756413,0.06087061920272719,171.09648459562953,0.005618107505142689,-0.0044490862637758255,-1.0012482404708862,0.001087266718968749,-0.0011260223109275103,0.00032205425668507814
2024-05-13 17:19:45.977046,0.3832017069267623,0.060072380864121616,171.09013251970143,0.005515798460692167,-0.004433224443346262,-1.0000396966934204,0.0009589979890733957,-0.0017644367180764675,0.0003828039625659585
2024-05-13 17:19:45.994134,0.3829041668110436,0.06059770512061758,171.0854196891741,0.0056783054023981094,-0.00434187101200223,-1.0008163452148438,0.0007785526686348021,-0.0017012498574331403,0.0010968676069751382
2024-05-13 17:19:46.012928,0.38220087076994386,0.06046903876408482,171.08218217950753,0.005533511284738779,-0.00425944197922945,-1.000425100326538,0.0001678526750765741,-0.001616769703105092,0.001239413977600634
2024-05-13 17:19:46.023985,0.3812426966150116,0.06001760594862929,171.07779719806038,0.005440850742161274,-0.004188782535493374,-1.0006822347640991,0.000306958012515679,-0.0022638491354882717,0.0008220773888751864
2024-05-13 17:19:46.055101,0.38155669855384705,0.0595227307288141,171.07244232975108,0.005792994983494282,-0.004376906435936689,-1.0005770921707153,0.0005273802671581507,-0.0017754539148882031,0.00053856783779338
2024-05-13 17:19:46.072086,0.3816374868851236,0.05900009452528251,171.07081674472863,0.005519460421055555,-0.004373650997877121,-1.00090754032135,0.0005712956772185862,-0.0015051771188154817,0.0006244797259569168
2024-05-13 17:19:46.096071,0.381374577962931,0.05795845732632251,171.07001078240657,0.005819255486130714,-0.004518518224358559,-1.0010530948638916,0.0004590415337588638,-0.0024151478428393602,0.00147275160998106
2024-05-13 17:19:46.114059,0.3806631977526183,0.05629172441617411,171.06848082003248,0.0005339453928172588,-0.005839515943080187,-1.028050184249878,-0.0008983239531517029,-0.0016573445172980428,0.001688516465947032
2024-05-13 17:19:46.118139,0.371088686598862,0.07293885643483893,171.0607763666487,0.005865535698831081,-0.007493840530514717,-1.09397554397583,-0.005208255723118782,0.010256976820528507,-1.3526485417969525e-05
2024-05-13 17:19:46.156199,0.3682843336556164,0.08341927478812103,171.06521598960921,0.005378788337111473,-0.006766529753804207,-0.9925768971443176,-0.004020309075713158,0.009078791365027428,0.0006606325041502714
2024-05-13 17:19:46.166269,0.36853662376808377,0.10032749478987353,171.0871272364666,0.006227212026715279,0.0032097245566546917,-1.025891900062561,0.004187665414065123,0.011245673522353172,0.0007206990267150104
2024-05-13 17:19:46.191951,0.37549874764686886,0.10679570394419545,171.0874960666818,0.007463889662176371,-0.0060486625880002975,-0.9973688125610352,0.003760700346902013,0.006021157372742891,0.001472022500820458
2024-05-13 17:19:46.212263,0.3779117254145874,0.12049127376670238,171.08979101024292,0.0037354789674282074,-0.004477242007851601,-1.0078072547912598,0.004550829995423555,0.010400989092886448,-0.0007279162527993321
2024-05-13 17:19:46.234953,0.38545233429956083,0.13263989912369398,171.07529734882417,0.0048573738895356655,-0.010155761614441872,-0.9971973299980164,0.0025820755399763584,0.00818612053990364,-0.00019671919289976358
2024-05-13 17:19:46.252489,0.3807436125579246,0.14748712955371499,171.08450444382532,0.007868881337344646,-0.001122770132496953,-1.0017272233963013,-0.0006979444297030568,0.011369754560291767,0.0025999806821346283
2024-05-13 17:19:46.273853,0.38026979486468143,0.1627204390946136,171.08666278360306,0.007822880521416664,-0.0019273909274488688,-0.9996907711029053,0.0002446564903948456,0.010920513421297073,0.0032395070884376764
2024-05-13 17:19:46.294754,0.38027603808446964,0.17682383257555112,171.0844224815553,0.010346423834562302,-0.0030107107013463974,-1.0003176927566528,0.0012724617263302207,0.010495857335627079,-0.00031820530421100557
2024-05-13 17:19:46.312914,0.38149447979937645,0.18707545293185102,171.0754885941209,0.013561367057263851,-0.007490274030715227,-1.0024107694625854,-0.00019546528346836567,0.006219238508492708,-0.00038129143649712205
2024-05-13 17:19:46.336423,0.37840339231312253,0.19438044697088544,171.08734580252005,0.008597513660788536,-0.002670316956937313,-1.0013922452926636,0.0005469158058986068,0.005389542784541845,0.0024238505866378546
2024-05-13 17:19:46.354891,0.38258973798538504,0.2012199342695144,171.09720859568156,0.002146216342225671,-0.0028029116801917553,-0.9985198974609375,0.003930495586246252,0.0065472922287881374,6.000831490382552e-06
2024-05-13 17:19:46.372456,0.38614661235652203,0.21183552900338193,171.1040797659866,0.006507101468741894,-0.0007563631515949965,-1.0026395320892334,0.004576662089675665,0.008462689816951752,-0.00026182731380686164
2024-05-13 17:19:46.387988,0.39076715528875633,0.22443812181634137,171.10341040744794,0.008505602367222309,-0.006412038113921881,-0.999207079410553,0.003822479397058487,0.008350913412868977,0.003436134895309806
2024-05-13 17:19:46.414829,0.39233767191103613,0.23270828028203677,171.10045976572647,0.00973984319716692,-0.006392641458660364,-1.0022737979888916,0.0031013356056064367,0.005590159446001053,0.002926257438957691
2024-05-13 17:19:46.432953,0.39593518057164945,0.24292426892881888,171.09164882169716,0.011906450614333153,-0.005926257930696011,-0.9979541897773743,0.003074736101552844,0.00669130077585578,0.0011529276380315423
2024-05-13 17:19:46.462856,0.3974935309194702,0.2541418407843599,171.0947633879587,0.009759267792105675,-0.0028221842367202044,-1.0028222799301147,0.0027566172648221254,0.007196270860731602,-0.0005445328424684703
2024-05-13 17:19:46.474029,0.39818554114018356,0.26400065856231797,171.09912104864915,0.00873470213264227,-0.003349483013153076,-0.999424397945404,0.002391533926129341,0.007658832706511021,-0.0016925190575420856
2024-05-13 17:19:46.492206,0.4049166925672311,0.2743370026127951,171.10076029404996,0.007787973619997501,-0.007215641438961029,-1.0045545101165771,0.004648993723094463,0.008191964589059353,0.00027737487107515335
2024-05-13 17:19:46.516349,0.4094952938690933,0.2834014106933425,171.10443493582343,0.0055916220881044865,-0.004877896048128605,-1.0008752346038818,0.0038609891198575497,0.008112830109894276,-0.0006104643689468503
2024-05-13 17:19:46.534948,0.41340760488133543,0.2985351622229602,171.10641569068272,0.009119374677538872,-0.003912157379090786,-1.0008786916732788,0.004649688955396414,0.01123768649995327,-0.0015249414136633277
2024-05-13 17:19:46.544535,0.41515981520770817,0.31438013388033204,171.10632006803436,0.011194922029972076,-0.0033663208596408367,-1.0025519132614136,0.0030459286645054817,0.011150225065648556,0.001220547710545361
2024-05-13 17:19:46.576304,0.4191509135192435,0.3261790989085439,171.1027820300443,0.008615856058895588,-0.008274921216070652,-0.9985126256942749,0.0015189344994723797,0.010183916427195072,0.0019341267179697752
2024-05-13 17:19:46.594189,0.4199172554080336,0.3363596025881537,171.10372459614973,0.010029233060777187,-0.005174953956156969,-1.0001474618911743,0.0013457034947350621,0.007714062929153442,0.00029286983772180974
2024-05-13 17:19:46.603730,0.42063223747591644,0.3498514406743239,171.109680521106,0.013674465008080006,-0.0031648422591388226,-1.0024574995040894,0.0017189900390803814,0.00930173508822918,-0.0005100211128592491
2024-05-13 17:19:46.637033,0.41853734375227947,0.36281794116378485,171.11795871038007,0.012502235360443592,-0.002536345273256302,-1.006790280342102,0.0012463601306080818,0.00849865935742855,0.00014179310528561473
2024-05-13 17:19:46.649564,0.4230912656596797,0.3710995722128517,171.12093667285816,0.009959273040294647,-0.005566466134041548,-1.0029360055923462,0.0038630228955298662,0.006943613290786743,-0.0007320473669096828
2024-05-13 17:19:46.678443,0.4266604930682609,0.37646951496308334,171.12675599403102,0.009581484831869602,-0.003961852751672268,-1.0044397115707397,0.0034953912254422903,0.004591331351548433,-0.0011007559951394796
2024-05-13 17:19:46.697085,0.42710386839493,0.38653222455993685,171.13590844751886,0.008730374276638031,-0.00213382625952363,-1.0024017095565796,0.0018160272156819701,0.007752805482596159,0.0008461018442176282
2024-05-13 17:19:46.711528,0.4290455897903441,0.4005818169609473,171.13536203238525,0.010753003880381584,-0.006121410522609949,-1.0048359632492065,0.0019081918289884925,0.009704499505460262,0.001086945878341794
2024-05-13 17:19:46.733042,0.43169252821756204,0.4088654490419976,171.13140052266664,0.011681274510920048,-0.009059219621121883,-1.0032620429992676,0.0005403630784712732,0.006441528908908367,0.0015709876315668225
2024-05-13 17:19:46.757032,0.43359206785876603,0.4180497856394169,171.12738437143466,0.015434718690812588,-0.006458786781877279,-1.0062084197998047,0.0024080269504338503,0.0051160650327801704,-0.001225464278832078
2024-05-13 17:19:46.774052,0.4347477838910998,0.4305554084424607,171.13455607006318,0.01435794960707426,-0.005406735464930534,-1.0076020956039429,0.0022039487957954407,0.007240878883749247,-0.0013663973659276962
2024-05-13 17:19:46.792868,0.4388893064469341,0.44140004129714844,171.13801214578322,0.009378926828503609,-0.003813298186287284,-1.0051400661468506,0.004118162207305431,0.009188794530928135,-0.0020298310555517673
2024-05-13 17:19:46.816039,0.444646568947873,0.45048555359501413,171.14757441062122,0.008748688735067844,-0.004552304279059172,-1.0056822299957275,0.005604404956102371,0.009153326041996479,-0.0013416120782494545
2024-05-13 17:19:46.825755,0.44999356653136163,0.46584504821278605,171.15079825990946,0.011045915074646473,-0.007268676999956369,-1.0042921304702759,0.004647356923669577,0.011448350735008717,0.00010741993901319802
2024-05-13 17:19:46.837785,0.45192261472421424,0.48140112421260745,171.15098950520624,0.013146510347723961,-0.00810919888317585,-1.0047500133514404,0.0026346263475716114,0.011533347889780998,0.0020081999246031046
2024-05-13 17:19:46.876489,0.4528969838979989,0.4939657374385219,171.15134467504308,0.01888406276702881,-0.006531874183565378,-1.0050684213638306,0.0017366347601637244,0.007707350421696901,0.00028405568446032703
2024-05-13 17:19:46.885559,0.4521286409772253,0.5055154806033078,171.1567815056224,0.01870952546596527,-0.0046211122535169125,-1.0053796768188477,0.0002011451288126409,0.0070192753337323666,-0.0008364876848645508
2024-05-13 17:19:46.898811,0.45135752329210144,0.5131563812112893,171.17807803545452,0.010971170850098133,-0.0004855424049310386,-1.0058927536010742,0.0023655828554183245,0.006805661600083113,0.0002010316529776901
2024-05-13 17:19:46.937089,0.4532354517878847,0.5209673962182864,171.19324105541193,0.011063549667596817,-0.0020444069523364305,-1.002204179763794,0.0031734281219542027,0.00714265089482069,-0.00011956418165937066
2024-05-13 17:19:46.954413,0.45804225077713406,0.5283246305323008,171.19214822514473,0.011060082353651524,-0.008989880792796612,-1.0037254095077515,0.0029028847347944975,0.005785975139588118,0.0003491817624308169
2024-05-13 17:19:46.972995,0.45711334505001233,0.5366960412163564,171.18918392304494,0.012735172174870968,-0.009376440197229385,-1.004021406173706,-0.0008684265776537359,0.004929160699248314,0.0007596626528538764
2024-05-13 17:19:46.996905,0.45670822945486594,0.548168677948715,171.18854188526296,0.017704393714666367,-0.008201160468161106,-1.0048081874847412,7.849535904824734e-05,0.007603846024721861,-0.0022328165359795094
2024-05-13 17:19:47.014085,0.459160534171165,0.5603655815373596,171.19479833854268,0.01528968196362257,-0.0031041731126606464,-1.0073705911636353,0.0032146975863724947,0.008067739196121693,-0.0028236820362508297
2024-05-13 17:19:47.025686,0.46107058590038846,0.572491248387395,171.21158694352258,0.01327271293848753,-0.0017364807426929474,-1.0049563646316528,0.004061299841850996,0.008944383822381496,-0.0007966971606947482
2024-05-13 17:19:47.056288,0.4657814954369932,0.5853923551516383,171.2135676983819,0.008192148059606552,-0.007453206926584244,-1.0037288665771484,0.0037966761738061905,0.011163369752466679,-0.001906443270854652
2024-05-13 17:19:47.074834,0.47053381299544117,0.5993582777353161,171.20946958487988,0.014756212942302227,-0.010984168387949467,-1.0046652555465698,0.0023141931742429733,0.010830317623913288,-0.00012426130706444383
2024-05-13 17:19:47.086444,0.47028296362600186,0.6136786764647469,171.2106033962821,0.02096860110759735,-0.007607689127326012,-1.003815770149231,0.0007247669855132699,0.009581434540450573,-0.00016893282008823007
2024-05-13 17:19:47.117011,0.4696423132261958,0.6247369661744092,171.23414022816198,0.019287219271063805,0.0018189253751188517,-1.0054547786712646,0.0038350773975253105,0.007583531551063061,-0.0005928790778852999
2024-05-13 17:19:47.130152,0.471385985816106,0.6335420405099077,171.2544941918886,0.018207475543022156,-0.00011033046757802367,-1.003677248954773,0.004050451330840588,0.005826277658343315,-0.001057097571901977
2024-05-13 17:19:47.152538,0.47390680586751677,0.6392712352022261,171.25805955063535,0.00959927961230278,-0.008120384998619556,-1.0035072565078735,0.0015236134640872478,0.005360363516956568,0.00024437857791781425
2024-05-13 17:19:47.176908,0.47509301762727757,0.6428640214273585,171.25225388984083,0.01157125923782587,-0.014145414344966412,-1.005039930343628,-0.0001761442399583757,0.004753580782562494,-0.0011376248439773917
2024-05-13 17:19:47.181251,0.47459259954886834,0.65400720825397,171.25689841847645,0.01512959972023964,-0.00848822295665741,-1.0050809383392334,0.0005868836306035519,0.007597070187330246,-0.0016481350176036358
2024-05-13 17:19:47.212162,0.47326161979521497,0.6699539924186572,171.28352249586115,0.01961587741971016,0.002139600459486246,-1.0062928199768066,0.0022123870439827442,0.010301581583917141,-0.002525806427001953
2024-05-13 17:19:47.227840,0.4782282345388721,0.6887601712463468,171.294081968318,0.017799437046051025,-0.004485075827687979,-1.0023777484893799,0.005307897459715605,0.01276362780481577,-0.001409103162586689
2024-05-13 17:19:47.242785,0.48253104027256855,0.7004967307571031,171.28956038308746,0.013960009440779686,-0.012368491850793362,-1.0067353248596191,0.0021537644788622856,0.009394749067723751,-0.001446833019144833
2024-05-13 17:19:47.272110,0.4839367785811218,0.7095593245686521,171.28793479806498,0.01630191132426262,-0.010493054986000061,-1.0036215782165527,-0.00039141951128840446,0.007332215551286936,-0.00012849655468016863
2024-05-13 17:19:47.288248,0.48074419875266977,0.7191274057396351,171.32212672505008,0.016579268500208855,0.005621894262731075,-1.0063912868499756,0.0029373858124017715,0.006728886626660824,0.0009199173655360937
2024-05-13 17:19:47.314624,0.48223707533399357,0.7309086282842608,171.33877872624657,0.02173946611583233,0.0005509597831405699,-1.0013071298599243,0.0035362590570002794,0.006209064740687609,-0.0011654561385512352
2024-05-13 17:19:47.332884,0.48520228456827824,0.7382794162549096,171.3402267263506,0.018038205802440643,-0.010871952399611473,-1.0068649053573608,0.0013732512015849352,0.0038695952389389277,-0.0013192961923778057
2024-05-13 17:19:47.363018,0.48880355516902035,0.7411694400474712,171.3272903480626,0.015435278415679932,-0.01681363396346569,-1.0041066408157349,0.0003863029705826193,0.003743619890883565,-0.0024186354130506516
2024-05-13 17:19:47.374424,0.48699841087658,0.749023570623604,171.34907865151493,0.010985607281327248,-0.004658746067434549,-1.0080487728118896,0.0003814579686149955,0.007863364182412624,-0.0017714878777042031
2024-05-13 17:19:47.387719,0.4847092302875679,0.7688857073691482,171.37280672869156,0.019594309851527214,0.0016487740213051438,-1.0009046792984009,0.002020533662289381,0.013183876872062683,-0.002406497485935688
2024-05-13 17:19:47.416915,0.48579475011792395,0.7840287170067425,171.3759622760881,0.018575644120573997,-0.007696571294218302,-1.0075650215148926,0.0005948108155280352,0.011369464918971062,-0.002483844757080078
2024-05-13 17:19:47.434954,0.48903887653026845,0.7935054443975765,171.37399518160714,0.022406816482543945,-0.011133112013339996,-1.0036568641662598,0.0018381422851234674,0.0068877157755196095,-0.0007159076631069183
2024-05-13 17:19:47.447875,0.48937350243874617,0.8001770984736509,171.39956740985969,0.020068511366844177,-0.0026604430750012398,-1.0037814378738403,0.0024564098566770554,0.005238674581050873,0.00011694738350342959
2024-05-13 17:19:47.476779,0.48948566695152246,0.8109935034371595,171.4220660529857,0.019314711913466454,-0.0005163394962437451,-1.0020356178283691,0.002543976530432701,0.007051717955619097,-0.0004394225834403187
2024-05-13 17:19:47.493115,0.48762070514299166,0.816000885872425,171.42522160038226,0.019296420738101006,-0.008131079375743866,-1.0086593627929688,-0.0009476599516347051,0.003636122215539217,-0.0027678185142576694
2024-05-13 17:19:47.513018,0.4895072247360903,0.8207485610366715,171.42881427988567,0.013471072539687157,-0.011368637904524803,-1.0023579597473145,0.0002297463797731325,0.004845205694437027,-1.1520867701619864e-05
2024-05-13 17:19:47.537054,0.48982152015961666,0.8330534669915668,171.43272114809093,0.01750270463526249,-0.00786368828266859,-1.007423996925354,0.0008533021318726242,0.010312654078006744,-0.003522179089486599
2024-05-13 17:19:47.554927,0.4881886247003076,0.8556329518097183,171.44072612979818,0.0198898296803236,-0.006177401170134544,-1.0004279613494873,-0.0001235287927556783,0.015896398574113846,-0.0033765751868486404
2024-05-13 17:19:47.578594,0.4860698253145756,0.8674349317261185,171.4515178286868,0.025087010115385056,-0.0037376272957772017,-1.0085808038711548,-7.519670180045068e-05,0.006866851355880499,-0.00333349104039371
2024-05-13 17:19:47.596152,0.48556780641057967,0.8705747376710616,171.4834694536241,0.019611617550253868,-0.0011677852598950267,-0.9994608759880066,0.0019487155368551612,0.0021716041956096888,0.0012132665142416954
2024-05-13 17:19:47.606368,0.4898341133208989,0.8795394143175562,171.5012142850878,0.02078859880566597,-0.004644457250833511,-1.0056862831115723,0.0036000984255224466,0.0057710581459105015,0.0007844916544854641
2024-05-13 17:19:47.617646,0.48754082394621423,0.8879934276018867,171.49979360574045,0.021712543442845345,-0.011149931699037552,-1.005834937095642,-0.0028989010024815798,0.004610083997249603,-0.002227343386039138
2024-05-13 17:19:47.656723,0.4881791264684931,0.8899507570467713,171.51293488970356,0.013761529698967934,-0.009444234892725945,-1.0043359994888306,-0.00022315925161819905,0.0032693203538656235,-0.00023980389232747257
2024-05-13 17:19:47.664911,0.4881674938025629,0.9010742003578132,171.52939564560327,0.01923275925219059,-0.0033263631630688906,-1.0066159963607788,0.0016286056488752365,0.009314748458564281,-0.0035113259218633175
2024-05-13 17:19:47.693035,0.48570435683312707,0.923332612924121,171.53831587265933,0.021491168066859245,-0.007824452593922615,-1.0024850368499756,-0.0022432294208556414,0.01489043328911066,-0.004514867439866066
2024-05-13 17:19:47.711804,0.48615312160593804,0.9353142588322044,171.55670274190499,0.02405863255262375,-0.0037890782114118338,-1.0035901069641113,0.0019905874505639076,0.008148817345499992,0.0004863852518610656
2024-05-13 17:19:47.734820,0.4874242838435009,0.9364664263678208,171.579201385031,0.023019012063741684,-0.002515198662877083,-1.0031622648239136,0.004185484256595373,0.0013336626579985023,-0.0004631325136870146
2024-05-13 17:19:47.753051,0.48951058646982243,0.9466825750971617,171.59256123504755,0.025269728153944016,-0.006374285090714693,-1.0011403560638428,0.001316505833528936,0.004908728413283825,-0.0008368052076548338
2024-05-13 17:19:47.773705,0.48595285832503915,0.950669484581745,171.60586644355075,0.01642634905874729,-0.008464498445391655,-1.010947346687317,-0.0001986888237297535,0.00568182859569788,0.00042131179361604154
2024-05-13 17:19:47.794898,0.49094684718622916,0.955914963142609,171.59884500908396,0.01199786551296711,-0.013765827752649784,-1.001510739326477,0.001617536647245288,0.00638723885640502,-0.0056840660981833935
2024-05-13 17:19:47.812946,0.48932238274167683,0.9734844508437033,171.61643957638591,0.024250207468867302,-0.004664998035877943,-1.003663182258606,0.0002628550282679498,0.011459022760391235,-0.0031287791207432747
2024-05-13 17:19:47.836505,0.4824991304825399,0.9887505639689165,171.6436647104176,0.023172926157712936,-0.0006585512892343104,-1.0073164701461792,-0.00025246862787753344,0.01019359938800335,1.9221159163862467e-05
2024-05-13 17:19:47.854903,0.483468857262123,0.9960842661468061,171.67068493877417,0.02652052417397499,0.0009290663874708116,-0.9983304738998413,0.00364505173638463,0.002907853340730071,-0.002331614261493087
2024-05-13 17:19:47.872410,0.49051659862937125,0.9994053389090191,171.67672282600046,0.029654009267687798,-0.009858477860689163,-1.0029789209365845,0.00352810462936759,0.0009943314362317324,-7.420330075547099e-05
2024-05-13 17:19:47.887827,0.4845161173609564,0.9972759207135617,171.6993307521532,0.0036637568846344948,-0.006606265902519226,-1.0041457414627075,-0.0018331175670027733,0.002995217451825738,-0.0011277426965534687
2024-05-13 17:19:47.914955,0.4852944921220734,1.002819152833556,171.70183060138942,-0.007065988145768642,-0.01575184427201748,-0.9866280555725098,-0.0021196117158979177,0.014171396382153034,-0.007536544930189848
2024-05-13 17:19:47.932932,0.4779959013853859,1.0420932741696582,171.71672041378005,0.003175328951328993,-0.010319164954125881,-0.9823591709136963,-0.00755311269313097,0.03614407777786255,-0.0036275312304496765
2024-05-13 17:19:47.946576,0.46069257761851057,1.107400127918735,171.74863105758234,0.015827618539333344,-0.003819915931671858,-0.9841369986534119,-0.01107095554471016,0.05324172228574753,0.0032964807469397783
2024-05-13 17:19:47.961315,0.4532357719530021,1.1849545780667028,171.78566434326217,0.02530202828347683,0.002173671033233404,-0.976990282535553,-0.00569789856672287,0.0632612481713295,0.0022948954720050097
2024-05-13 17:19:47.992966,0.4481614750082115,1.2740633604128047,171.81123657151468,0.03790021687746048,-0.001220016274601221,-0.975913405418396,-0.0022307191975414753,0.0704653412103653,0.002401485340669751
2024-05-13 17:19:48.008048,0.4442792595169997,1.3625731138243555,171.82012947781405,0.03533440828323364,-0.01120717916637659,-0.9787214994430542,-0.006301559042185545,0.07135092467069626,0.004402223043143749
2024-05-13 17:19:48.035049,0.44212903058891506,1.4382115891884286,171.82756072363102,0.024552566930651665,-0.013878359459340572,-0.9723471999168396,-0.004089621361345053,0.06624659150838852,0.0006809914484620094
2024-05-13 17:19:48.052951,0.43786813980516426,1.5009103778916186,171.85279144242506,0.028295068070292473,-7.303315214812756e-05,-0.9809936285018921,-0.00132119155023247,0.05815816670656204,-0.0021418631076812744
2024-05-13 17:19:48.076103,0.4266052379050926,1.5683129257771258,171.89679152105828,0.040442414581775665,0.006708280649036169,-0.9741730093955994,-0.004090616013854742,0.05249533802270889,0.0018494775285944343
2024-05-13 17:19:48.094199,0.41935459189472735,1.6169472877622015,171.91550623938411,0.03812350705265999,-0.005696712527424097,-0.9821574687957764,-0.005596036557108164,0.040996380150318146,0.004267578013241291
2024-05-13 17:19:48.104810,0.41689100135804197,1.6551806590235232,171.91377137133492,0.03940383717417717,-0.013367787003517151,-0.9814323782920837,-0.0047417390160262585,0.03199172019958496,0.0023033106699585915
2024-05-13 17:19:48.137022,0.4122908956324648,1.6910072423760614,171.93603778802915,0.03589989244937897,-0.0052499836310744286,-0.9869496822357178,-0.004600018262863159,0.029921408742666245,0.0024077745620161295
2024-05-13 17:19:48.149506,0.3976160741181337,1.719080707246989,171.97748337591278,0.035870980471372604,0.003434093203395605,-0.986413836479187,-0.007881663739681244,0.023425450548529625,0.0017145427409559488
2024-05-13 17:19:48.172881,0.3928716539659136,1.7407709334517165,172.0116889632762,0.03849397227168083,0.001637201989069581,-0.9865199327468872,-0.0017945313593372703,0.017441527917981148,0.0009814042132347822
2024-05-13 17:19:48.196079,0.3972030611167595,1.7551356750498996,172.03127794581582,0.039719149470329285,-0.005786053370684385,-0.9872713088989258,0.0021475618705153465,0.009811896830797195,0.003342089708894491
2024-05-13 17:19:48.211326,0.3982495741636524,1.765692266020683,172.03727485190709,0.04080961272120476,-0.012158229015767574,-0.9891279935836792,-0.0005230183596722782,0.006705543491989374,0.002874902682378888
2024-05-13 17:19:48.233049,0.39609491628477783,1.7741454788922202,172.05500602299244,0.03570340573787689,-0.007642453536391258,-0.9900555610656738,-0.002951150294393301,0.006767478305846453,0.0022502646315842867
2024-05-13 17:19:48.263069,0.39088326850464655,1.7760285833907339,172.0818486664306,0.03292374312877655,-0.002664845436811447,-0.9912947416305542,-0.0019238109234720469,0.0019221568945795298,0.002478786278516054
2024-05-13 17:19:48.273936,0.3858668947656689,1.777437736793872,172.11541221601203,0.03811474144458771,0.0029487365391105413,-0.992002010345459,-0.000957082724198699,-0.001727424911223352,0.0020096348598599434
2024-05-13 17:19:48.293094,0.3850637072079577,1.7767564254241635,172.13108066996804,0.037373170256614685,-0.00391424261033535,-0.9929022192955017,-0.000273740355623886,-0.00298570329323411,0.0025688735768198967
2024-05-13 17:19:48.316935,0.3875042191757679,1.7736994888837596,172.1366677647091,0.040028225630521774,-0.009925726801156998,-0.9937251210212708,0.0005093913641758263,-0.005303827580064535,0.0014661013847216964
2024-05-13 17:19:48.326355,0.3872012629334808,1.7653194871023885,172.15796429454122,0.039252616465091705,-0.004473984241485596,-0.9940335750579834,0.0006003457820042968,-0.010127587243914604,0.0021890776697546244
2024-05-13 17:19:48.352588,0.38336915328313337,1.7512335025997066,172.19053063650384,0.03743596747517586,-0.001230729278177023,-0.995466411113739,-0.0010764823528006673,-0.013254077173769474,0.0013292598305270076
2024-05-13 17:19:48.376418,0.37875776173716985,1.7369148647784212,172.22300135581807,0.033224284648895264,-0.0010322927264496684,-0.997306764125824,-0.00237061595544219,-0.013920692726969719,0.0006333466153591871
2024-05-13 17:19:48.386363,0.3778667955764534,1.7200727922239334,172.24618301786109,0.035315174609422684,-0.005618198774755001,-0.9950809478759766,-0.0013565744739025831,-0.017231985926628113,0.0018545594066381454
2024-05-13 17:19:48.398744,0.3756628055890814,1.6995370814323496,172.26903683082395,0.03441827371716499,-0.005415464751422405,-0.9988382458686829,-0.0011401799274608493,-0.018508508801460266,0.0022362717427313328
2024-05-13 17:19:48.436945,0.3730124787477049,1.6803619656677733,172.29620732334226,0.034428779035806656,-0.0015213667647913098,-0.9960238933563232,-0.001277958624996245,-0.018319206312298775,0.0006976844160817564
2024-05-13 17:19:48.446320,0.3741339371124828,1.6607561210986634,172.31956657030372,0.035089295357465744,-0.0022331071086227894,-0.9968839287757874,0.0010953788878396153,-0.0195726677775383,0.000139071315061301
2024-05-13 17:19:48.478924,0.3762150370556475,1.63577854619075,172.33650543944535,0.03423059731721878,-0.005813233088701963,-0.9989584684371948,0.0009797251550480723,-0.022546999156475067,0.001217063283547759
2024-05-13 17:19:48.493204,0.37800542707226353,1.6140002745787527,172.35427759166572,0.030489349737763405,-0.006643380969762802,-1.0004299879074097,0.0015894067473709583,-0.019407661631703377,0.0018691933946684003
2024-05-13 17:19:48.515029,0.3803267842555687,1.5938417182954006,172.3666265736851,0.030578959733247757,-0.007634300738573074,-0.999179482460022,0.001796168158762157,-0.018870649859309196,-0.0004336235870141536
2024-05-13 17:19:48.533082,0.3791335021827999,1.5726941719645715,172.38247261255952,0.033167190849781036,-0.00364852137863636,-0.9988667368888855,0.00012772894115187228,-0.019704708829522133,0.0007224458386190236
2024-05-13 17:19:48.555131,0.3776578077961069,1.5531880054686615,172.39879676467586,0.033499572426080704,-0.0031187362037599087,-0.9981540441513062,0.0005034136702306569,-0.019130095839500427,0.0033930980134755373
2024-05-13 17:19:48.575061,0.37561339343930455,1.5331507917647829,172.42835782340367,0.03208182752132416,-0.0003872626111842692,-0.9966729283332825,-0.00010847538214875385,-0.020157266408205032,0.003094013314694166
2024-05-13 17:19:48.593161,0.37761618633085214,1.5083616873892793,172.43770152218826,0.03336552530527115,-0.0068855853751301765,-0.998845636844635,0.0007838563760742545,-0.02348174713551998,0.0005531906499527395
2024-05-13 17:19:48.608152,0.374291565071922,1.482996285802556,172.45733148586288,0.03216276690363884,-0.0026050827000290155,-0.9981794953346252,-0.0009623516816645861,-0.02451470121741295,0.001227994216606021
2024-05-13 17:19:48.634899,0.37245528472181993,1.4557056246435354,172.4731365436023,0.029718633741140366,-0.005048680584877729,-0.9988496899604797,-0.0004316216509323567,-0.02398119494318962,0.0010330262593925
2024-05-13 17:19:48.652744,0.3722252994458609,1.428670241804744,172.49081307317428,0.029242565855383873,-0.0031703535933047533,-0.9986590147018433,0.0007029194966889918,-0.02523210644721985,0.0004485032113734633
2024-05-13 17:19:48.668634,0.37034643713515203,1.4007188665652304,172.51363956538046,0.03068004734814167,-0.0025990339927375317,-0.9994270205497742,0.000880636100191623,-0.025400901213288307,0.0006441525183618069
2024-05-13 17:19:48.680168,0.37225710251418376,1.3720156369084866,172.53186251008606,0.027774255722761154,-0.004902790766209364,-0.9984680414199829,0.0012290057493373752,-0.02628595195710659,0.00016240993863902986
2024-05-13 17:19:48.712182,0.37272056820196614,1.342824902499733,172.55049526614184,0.02969474159181118,-0.00505893724039197,-0.9995936751365662,0.001516983611509204,-0.027125606313347816,-0.0002952374052256346
2024-05-13 17:19:48.727807,0.37413425727760014,1.312327574247097,172.5681991164705,0.028662830591201782,-0.004918254911899567,-0.999566912651062,0.0017665859777480364,-0.028247391805052757,0.0011817084159702063
2024-05-13 17:19:48.755019,0.37425119758671016,1.2800554640273158,172.59169496721537,0.02883269637823105,-0.002953376155346632,-1.0001100301742554,0.0010889286641031504,-0.02958468534052372,0.00010973543976433575
2024-05-13 17:19:48.772096,0.37624171748209284,1.2429104407215534,172.61203527056367,0.02664804272353649,-0.0034978820476680994,-1.0003366470336914,0.0025105553213506937,-0.03202963247895241,0.0011376241454854608
2024-05-13 17:19:48.796235,0.37680171295275455,1.2085980249306423,172.62458915825815,0.027256038039922714,-0.004365389700978994,-0.9998673796653748,0.001547437161207199,-0.03163221478462219,0.001040359027683735
2024-05-13 17:19:48.814298,0.3773536242542033,1.1751351139177517,172.64335851809733,0.023996002972126007,-0.005254744086414576,-1.000248670578003,0.0013298919657245278,-0.03008623607456684,0.0013994878390803933
2024-05-13 17:19:48.824007,0.37713225675598616,1.1417476551508483,172.66797451986608,0.02414942905306816,-0.0030802309047430754,-1.0008693933486938,0.001009476720355451,-0.030651472508907318,0.0013534679310396314
2024-05-13 17:19:48.856411,0.37614908304147454,1.1082131338733783,172.6960056162198,0.025340385735034943,-0.001877363189123571,-0.9996585249900818,0.0006874477840028703,-0.031452927738428116,0.0007630580803379416
2024-05-13 17:19:48.874422,0.3759267283674789,1.0747681521070587,172.71980199528812,0.02448071353137493,-0.0038008433766663074,-1.0009914636611938,0.0002966817410197109,-0.03168058022856712,-0.001016479916870594
2024-05-13 17:19:48.885691,0.3751873337093986,1.0393323836410922,172.74224599690078,0.025914423167705536,-0.005265920422971249,-0.9988331198692322,0.0004086491244379431,-0.03275613114237785,-0.000761551724281162
2024-05-13 17:19:48.917009,0.37416920863624353,1.0022309027912886,172.76020939441793,0.023737721145153046,-0.006198140326887369,-1.0002774000167847,-0.0010909955017268658,-0.0343497097492218,-0.0010990211740136147
2024-05-13 17:19:48.932027,0.37206780488855395,0.9620002348062673,172.78470245278157,0.02026093751192093,-0.004373467992991209,-0.9992377758026123,-0.0009437205735594034,-0.03519260883331299,-0.0001494705502409488
2024-05-13 17:19:48.953020,0.37048095984528956,0.92569169623042,172.80489249196813,0.019537901505827904,-0.004592285491526127,-1.0014375448226929,-0.0005746443057432771,-0.032897599041461945,0.00019512945436872542
2024-05-13 17:19:48.977024,0.3682590139309198,0.8895040199863702,172.82863422952312,0.02004261501133442,-0.003641383023932576,-1.00111722946167,-0.0013569103321060538,-0.03277767822146416,0.0001766920613590628
2024-05-13 17:19:48.992798,0.3672843779528707,0.8533281898516621,172.84812758941433,0.01991797611117363,-0.003958447836339474,-1.0000888109207153,-0.00023466843413189054,-0.03353967145085335,0.0004498419293668121
2024-05-13 17:19:49.013030,0.36784896245688103,0.8180109892008187,172.87349491199174,0.021227525547146797,-0.0016667218878865242,-1.0005950927734375,0.0014777856413275003,-0.03403204679489136,0.0005372787127271295
2024-05-13 17:19:49.036735,0.37049024463369257,0.7807681020908548,172.88916336594775,0.01992349699139595,-0.0040668523870408535,-0.9997530579566956,0.0026912079192698,-0.03488841652870178,0.0001497238699812442
2024-05-13 17:19:49.046141,0.37402705532414265,0.7403451749528681,172.91050087691488,0.016678258776664734,-0.0036816783249378204,-1.0013991594314575,0.003497917205095291,-0.03638620674610138,0.0011612431844696403
2024-05-13 17:19:49.072813,0.37424730224444913,0.7007333327788206,172.93336835025607,0.015439780429005623,-0.0030984117183834314,-1.0003613233566284,0.0017564205918461084,-0.03532126918435097,0.0016280482523143291
2024-05-13 17:19:49.097106,0.37453539748920617,0.661811393071797,172.95548450278858,0.015461580827832222,-0.0033130247611552477,-1.0018646717071533,0.0011241501197218895,-0.03413254767656326,0.001493430812843144
2024-05-13 17:19:49.108242,0.3749961150930647,0.6242681377209113,172.97672639110732,0.014568114653229713,-0.004899069666862488,-1.0011911392211914,0.001372880069538951,-0.03359708562493324,0.002883944194763899
2024-05-13 17:19:49.117541,0.37514192362358856,0.5867867275985258,172.99468978862447,0.01624896004796028,-0.004074200056493282,-1.0007855892181396,0.0013447653036564589,-0.03433539345860481,0.0020894689951092005
2024-05-13 17:19:49.163063,0.37425231816462085,0.5475115924062187,173.00971620479848,0.014638995751738548,-0.0032004020176827908,-0.9996004700660706,0.0003153414581902325,-0.035689231008291245,0.00040154741145670414
2024-05-13 17:19:49.166347,0.3725489596990696,0.5080119147449473,173.02407326243386,0.01598535105586052,-0.0028690381441265345,-1.0010613203048706,-0.00010156398639082909,-0.037349455058574677,0.001215087017044425
2024-05-13 17:19:49.192943,0.3726054421618544,0.468010751788209,173.0331710744083,0.012348624877631664,-0.004778537433594465,-1.000895380973816,0.00012086712376913056,-0.036324892193078995,0.0005463291890919209
2024-05-13 17:19:49.212281,0.3715012460329867,0.42882059375413034,173.04217326373438,0.012246201746165752,-0.005455437581986189,-1.001235842704773,0.0004523273673839867,-0.0353054441511631,0.00016157288337126374
2024-05-13 17:19:49.234928,0.371095276664194,0.39201150369774157,173.0523502455977,0.010514234192669392,-0.004850016441196203,-1.000893473625183,0.0003179182531312108,-0.033534228801727295,-0.0002108694170601666
2024-05-13 17:19:49.252861,0.3685734427565784,0.35511103318077747,173.07146111489538,0.012080131098628044,-0.0014080217806622386,-1.0001219511032104,3.0635157600045204e-05,-0.034522078931331635,-0.00022273762442637235
2024-05-13 17:19:49.273833,0.3687037499593375,0.31806312662727626,173.08417892712995,0.010744850151240826,-0.0030960040166974068,-1.000872015953064,0.0006765384459868073,-0.033120475709438324,0.00018841885321307927
2024-05-13 17:19:49.294926,0.3692746043635625,0.2821087973929176,173.0913642861368,0.011376418173313141,-0.004737450275570154,-1.0008156299591064,0.00021461544383782893,-0.03392491862177849,7.9492230725009e-05
2024-05-13 17:19:49.313018,0.3711478637847178,0.24288785014672098,173.10028451319286,0.008919390849769115,-0.0061779264360666275,-1.0010813474655151,0.0009228849085047841,-0.03457958251237869,0.0012856012908741832
2024-05-13 17:19:49.336389,0.37034438274231574,0.2042258044737018,173.12117123167477,0.007861105725169182,-0.0019482115749269724,-1.0013489723205566,0.0008548472542315722,-0.03422165662050247,0.0014955340884625912
2024-05-13 17:19:49.354992,0.3700180010856096,0.1685673611686222,173.13902534616517,0.006520749069750309,-0.002420153236016631,-1.0011802911758423,0.0007211759220808744,-0.032804280519485474,-5.1727285608649254e-05
2024-05-13 17:19:49.378997,0.3722138268624894,0.13395100195964554,173.1509781772127,0.006371734663844109,-0.004624982830137014,-1.0003635883331299,0.0018306542187929153,-0.031869515776634216,0.00022346025798469782
2024-05-13 17:19:49.387193,0.3725368467854634,0.09712684413242176,173.16414678193246,0.007091771345585585,-0.004802139010280371,-1.0015641450881958,0.0011005031410604715,-0.034064874053001404,0.0010606904979795218
2024-05-13 17:19:49.399935,0.3741182490217329,0.05828721354098226,173.17640014130347,0.008065678179264069,-0.005927141290158033,-0.9995071291923523,0.0009698183857835829,-0.035458337515592575,0.00016044187941588461
2024-05-13 17:19:49.432893,0.37269028591795067,0.019618280982886885,173.19757372773051,0.006779185961931944,-0.00265375804156065,-1.0019773244857788,0.0011715831933543086,-0.036407891660928726,0.0003592523280531168
2024-05-13 17:19:49.447497,0.37320190977546697,-0.01979676970075305,173.2136110119017,0.004508933983743191,-0.005098437424749136,-1.0005451440811157,0.00037829624488949776,-0.03630873188376427,-0.0007085991092026234
2024-05-13 17:19:49.461229,0.37139425752294075,-0.058753747477805866,173.23769425891516,0.002089867601171136,-0.004025708884000778,-1.0015225410461426,-0.0006886094924993813,-0.03461412712931633,0.0004341237945482135
2024-05-13 17:19:49.492768,0.37055801291686374,-0.0956637562472242,173.25741984523816,0.002127845073118806,-0.004892528988420963,-1.0021699666976929,-0.0001666381722316146,-0.03285041078925133,0.00019099036580882967
2024-05-13 17:19:49.508161,0.36911657619772664,-0.13187160956377333,173.28034196009273,0.002609401708468795,-0.0032942842226475477,-0.9993990659713745,-0.0004110735026188195,-0.033041298389434814,-0.0005431636818684638
2024-05-13 17:19:49.535091,0.3691480057400793,-0.16856816158141555,173.30124233895296,0.004863575100898743,-0.0037155081517994404,-1.0012811422348022,0.0007062085205689073,-0.034139759838581085,0.0011184653267264366
2024-05-13 17:19:49.552101,0.36873267154160433,-0.2083615240367842,173.32326286883708,0.002218673238530755,-0.003078059060499072,-1.0018986463546753,0.00102753727696836,-0.03598444536328316,0.0009251837036572397
2024-05-13 17:19:49.577013,0.36974452671454466,-0.2481543262031975,173.35117102178577,0.0016262237913906574,-0.0032302027102559805,-1.0002483129501343,0.0010159634985029697,-0.03631405904889107,0.001920485869050026
2024-05-13 17:19:49.588429,0.36981090761554075,-0.28868760358496215,173.38055449559516,-0.0024468221236020327,-0.004070516675710678,-1.0017473697662354,0.001483062282204628,-0.035489823669195175,0.0030280952341854572
2024-05-13 17:19:49.612932,0.3713473533332498,-0.3245869711408434,173.4037498180165,-0.0021775930654257536,-0.004266693722456694,-1.000514268875122,0.0014463221887126565,-0.033542584627866745,0.0017340807244181633
2024-05-13 17:19:49.636900,0.37241913274398647,-0.3598730624144515,173.42891223491884,-0.0024085519835352898,-0.004274055361747742,-1.001686453819275,0.0013184467097744346,-0.03205733373761177,0.0022194592747837305
2024-05-13 17:19:49.649170,0.3732891547699433,-0.39482039231348287,173.45345993479586,-0.0009398783440701663,-0.0028764784801751375,-1.0010151863098145,0.001011302461847663,-0.03262664005160332,0.0010102849919348955
2024-05-13 17:19:49.673049,0.37594300342761056,-0.43293314136684496,173.4775978233227,-0.00267285224981606,-0.005101409740746021,-1.0018059015274048,0.0028058025054633617,-0.03414911776781082,0.0033024726435542107
2024-05-13 17:19:49.696902,0.3776022591482477,-0.47164521283944916,173.50054725893395,-0.005662352312356234,-0.004293664824217558,-1.0008783340454102,0.0024544319603592157,-0.03462908789515495,0.0015542092733085155
2024-05-13 17:19:49.711532,0.3787734231474933,-0.510693404324412,173.5133333730602,-0.006313219666481018,-0.0061585502699017525,-1.0014827251434326,0.00044606506708078086,-0.03413520008325577,0.001550750806927681
2024-05-13 17:19:49.732977,0.3783560612366085,-0.54949544219499,173.5295755629065,-0.006091052200645208,-0.003856830531731248,-1.0012329816818237,0.0005874132621102035,-0.035341713577508926,0.002034636912867427
2024-05-13 17:19:49.757018,0.3777160778474636,-0.5850825420397547,173.5440145828119,-0.004329332150518894,-0.003502123523503542,-1.0004229545593262,-2.4921639123931527e-05,-0.03373020514845848,0.0012821083655580878
2024-05-13 17:19:49.774111,0.3773600809174031,-0.6212481268907079,173.5540139797568,-0.0034543003421276808,-0.004362424369901419,-0.9993432760238647,0.00038301647873595357,-0.03419165685772896,0.0005042026750743389
2024-05-13 17:19:49.777445,0.3769674784422596,-0.6571140371918266,173.56088515006184,-0.004245242103934288,-0.004299229476600885,-1.0005346536636353,0.0006330892210826278,-0.03431733697652817,0.0019279891857877374
2024-05-13 17:19:49.816963,0.37686433191362184,-0.6949037663222146,173.57078892435834,-0.008639967069029808,-0.004407662432640791,-1.0003108978271484,0.00041197537211701274,-0.033533111214637756,0.0018160415347665548
2024-05-13 17:19:49.825468,0.37680171295275455,-0.7309797583011641,173.5783431135804,-0.00720110721886158,-0.00401696190237999,-1.0008633136749268,0.0002292817662237212,-0.033450961112976074,0.0016852475237101316
2024-05-13 17:19:49.837845,0.3768555006924684,-0.7674259145166167,173.5902276427362,-0.00910141784697771,-0.0031320475973188877,-1.0008162260055542,0.001162002794444561,-0.03363954648375511,0.0018126703798770905
2024-05-13 17:19:49.876402,0.3762947314894398,-0.8028564536189999,173.60222145491875,-0.007501009851694107,-0.002545979106798768,-1.0000430345535278,0.00063731474801898,-0.033035553991794586,0.0022231556940823793
2024-05-13 17:19:49.885786,0.37622557582409344,-0.8363756069708376,173.60966636111405,-0.007945431396365166,-0.004392337054014206,-1.0006011724472046,0.0006452974630519748,-0.03145591914653778,0.0019375625997781754
2024-05-13 17:19:49.898827,0.37768760983244637,-0.8719566236783728,173.61812213530655,-0.01024537067860365,-0.004614091012626886,-1.0003845691680908,0.0004156173672527075,-0.03353411331772804,0.0031073789577931166
2024-05-13 17:19:49.936931,0.3775838496540004,-0.9095138595727159,173.625894890582,-0.011751041747629642,-0.004554365295916796,-1.0005807876586914,0.00045636872528120875,-0.033428557217121124,0.0024044811725616455
2024-05-13 17:19:49.946295,0.37665411683365885,-0.9449435449014529,173.63395451380262,-0.012574709951877594,-0.0037247261498123407,-1.0004463195800781,0.0005310613778419793,-0.032691165804862976,0.00204868009313941
2024-05-13 17:19:49.973032,0.37664024301190724,-0.9794492337015342,173.64350311826232,-0.01151736918836832,-0.004249944351613522,-1.0015692710876465,0.00044471156434156,-0.032263871282339096,0.0010310430079698563
2024-05-13 17:19:49.993509,0.3758991408065344,-1.0134363617332236,173.65514176060802,-0.01252794824540615,-0.004176977090537548,-1.001331090927124,0.0009062814060598612,-0.03116336464881897,0.0008522915886715055
2024-05-13 17:19:50.014893,0.37482370617737476,-1.048177798781376,173.66843330873286,-0.012934044003486633,-0.004395014140754938,-1.0012712478637695,0.0004520157817751169,-0.032033905386924744,0.00011560865823412314
2024-05-13 17:19:50.032686,0.3744287291442776,-1.0826134781424648,173.68727097046374,-0.014055907726287842,-0.004142369143664837,-1.0005667209625244,0.00010933831799775362,-0.03149273246526718,0.0009257769561372697
2024-05-13 17:19:50.055388,0.37350246477937393,-1.11860761457308,173.70042591480518,-0.01452653668820858,-0.0030529224313795567,-1.0012688636779785,0.001096432562917471,-0.03255153447389603,-0.0003915719862561673
2024-05-13 17:19:50.075035,0.372873260282513,-1.1530038069030293,173.72427693538688,-0.01314735971391201,-0.002192004583775997,-1.000495433807373,0.0005025509744882584,-0.03178684040904045,0.0006025702459737659
2024-05-13 17:19:50.092237,0.37196260396707986,-1.1873111000520629,173.74754055969993,-0.015674563124775887,-0.00331092462874949,-1.0015507936477661,0.0006097978912293911,-0.03142784535884857,0.0009774190839380026
2024-05-13 17:19:50.116453,0.3727088821751831,-1.2223255312236043,173.7739050898962,-0.01731189340353012,-0.0040459963493049145,-1.0005894899368286,0.0018543836195021868,-0.030834615230560303,0.0020061901304870844
2024-05-13 17:19:50.134443,0.3738175072548408,-1.2555640064892368,173.79686818588578,-0.0175183042883873,-0.0045725759118795395,-1.0019307136535645,0.0006311545148491859,-0.03047894313931465,0.001646091928705573
2024-05-13 17:19:50.148663,0.3741874046870793,-1.2869329309129898,173.81994056490208,-0.018834279850125313,-0.00441407784819603,-0.9999446868896484,0.0008267476805485785,-0.02837119624018669,0.001378391869366169
2024-05-13 17:19:50.176679,0.3738065149191453,-1.3167388092338674,173.84533520823618,-0.01896938867866993,-0.0030993898399174213,-1.0013123750686646,0.0010109860450029373,-0.027407201007008553,0.0006643983069807291
2024-05-13 17:19:50.195063,0.3750837869743641,-1.348052771979143,173.87139921010896,-0.017465494573116302,-0.004686546511948109,-0.9991945028305054,0.0011941483244299889,-0.028743768110871315,0.0015995597932487726
2024-05-13 17:19:50.211159,0.3761155991062856,-1.381458373436029,173.89959423100277,-0.018795903772115707,-0.0050668600015342236,-1.0010164976119995,0.001558832242153585,-0.030062014237046242,0.0031935819424688816
2024-05-13 17:19:50.235942,0.3775187494134737,-1.4157288475965681,173.9256445724972,-0.021892257034778595,-0.0046385107561945915,-1.0009750127792358,0.0019764171447604895,-0.030413055792450905,0.0020766081288456917
2024-05-13 17:19:50.254981,0.3775512194924577,-1.4450598143267186,173.94997370632078,-0.021526623517274857,-0.004582582041621208,-1.0003494024276733,0.0016410894459113479,-0.027120491489768028,0.0004653189389500767
2024-05-13 17:19:50.274024,0.37734399262025653,-1.4729014796526887,173.97375642501078,-0.02296699769794941,-0.0031091906130313873,-1.0013010501861572,0.0009722223039716482,-0.026366056874394417,0.0005989109631627798
2024-05-13 17:19:50.297103,0.3763867255998234,-1.5010364162261465,173.98689770897386,-0.022171631455421448,-0.003279675031080842,-1.0007809400558472,0.0008375414181500673,-0.026787210255861282,0.00023323920322582126
2024-05-13 17:19:50.312018,0.37681163807139223,-1.5283171522665293,174.0020334081746,-0.020811209455132484,-0.005698745604604483,-0.9999653697013855,0.0004365421482361853,-0.02587503381073475,-4.9738162488210946e-05
2024-05-13 17:19:50.332899,0.37552297347408126,-1.5551965079714682,174.01839854142597,-0.02075459249317646,-0.0055303811095654964,-1.0003345012664795,-0.0009752555633895099,-0.02540067583322525,0.0007553476607427001
2024-05-13 17:19:50.356927,0.3744478323296125,-1.5856246805587577,174.03260533489959,-0.023190781474113464,-0.0052459039725363255,-1.0006816387176514,-0.0013150523882359266,-0.026692373678088188,0.0002662772312760353
2024-05-13 17:19:50.368454,0.37049005787070743,-1.616873863228624,174.0536013364082,-0.024168651551008224,-0.001546582323499024,-1.0001134872436523,-0.0010267503093928099,-0.02866213768720627,0.0015066572232171893
2024-05-13 17:19:50.393004,0.3686732542319105,-1.6457634289836622,174.06599129956263,-0.023598965257406235,-0.004263237584382296,-1.0009938478469849,-0.0006870177458040416,-0.02667289786040783,0.0027213338762521744
2024-05-13 17:19:50.416920,0.36741532548586453,-1.6741387028385397,174.07835394196033,-0.025209801271557808,-0.004141090903431177,-1.0003539323806763,-0.0002856883511412889,-0.025994213297963142,0.002470998791977763
2024-05-13 17:19:50.430200,0.3670910515828476,-1.7023713964944933,174.09040239565624,-0.024728115648031235,-0.004175768233835697,-1.0011948347091675,0.0004873350262641907,-0.026652676984667778,0.0016838149167597294
2024-05-13 17:19:50.453049,0.3669750184082367,-1.7283984726570616,174.10538783069524,-0.02468634769320488,-0.0009267251007258892,-0.9999986886978149,0.0013369090156629682,-0.02487628161907196,0.0019222756382077932
2024-05-13 17:19:50.472245,0.3655602087546921,-1.7553330034838894,174.1166713032041,-0.026709454134106636,-0.002432841807603836,-1.0012441873550415,-5.9955709730274975e-05,-0.02436261624097824,0.002271110424771905
2024-05-13 17:19:50.494767,0.36621705417335043,-1.783141798524479,174.119157492062,-0.027758248150348663,-0.0043270159512758255,-0.9994015693664551,-8.420972153544426e-05,-0.024604547768831253,0.0012300360249355435
2024-05-13 17:19:50.513243,0.3669231783396534,-1.8100773965683647,174.11770949195795,-0.026506494730710983,-0.0064995139837265015,-1.0005241632461548,0.0012487106723710895,-0.024468613788485527,0.001085810363292694
2024-05-13 17:19:50.525525,0.3658539602498555,-1.8373063725814438,174.11725869947273,-0.02733900584280491,-0.004302256274968386,-1.0008018016815186,-0.00030155337299220264,-0.02506272867321968,0.001291816239245236
2024-05-13 17:19:50.554871,0.36539428318262834,-1.863168883873697,174.1204552280043,-0.026042915880680084,-0.0028246932197362185,-0.9997950196266174,0.0008219296578317881,-0.025149809196591377,0.0006852869410067797
2024-05-13 17:19:50.570549,0.3657145817021049,-1.8890322489395965,174.1231190017806,-0.02821049466729164,-0.0035148588940501213,-1.0007072687149048,0.0014195623807609081,-0.02382352389395237,-0.00020418825442902744
2024-05-13 17:19:50.597034,0.3658460895240541,-1.915105215435651,174.12240866210692,-0.02928296849131584,-0.004412568174302578,-1.0003008842468262,0.0015282233944162726,-0.023901663720607758,-0.00016996765043586493
2024-05-13 17:19:50.614898,0.3666908451861672,-1.9402501299782298,174.12378836031925,-0.030145101249217987,-0.005108667071908712,-1.0014029741287231,0.0007582526304759085,-0.02312185987830162,0.0008293880964629352
2024-05-13 17:19:50.620298,0.36585745538571984,-1.9629777978848586,174.1316157571081,-0.029674267396330833,-0.0029736035503447056,-1.0008257627487183,0.0016290665371343493,-0.020774872973561287,0.0005749014089815319
2024-05-13 17:19:50.656678,0.36549454822521005,-1.9861656497868172,174.1412463238378,-0.02906535379588604,-0.0035134395584464073,-1.0008037090301514,0.0014809856656938791,-0.021841883659362793,0.00114344188477844
2024-05-13 17:19:50.666040,0.36589128616645256,-2.0094220170238875,174.1529532680752,-0.028696682304143906,-0.003239117097109556,-0.9997714161872864,0.0012921028537675738,-0.022358713671565056,0.0013100490905344486
2024-05-13 17:19:50.693042,0.3667983139438891,-2.0344819810886645,174.160698702594,-0.030862009152770042,-0.005174699705094099,-1.0002658367156982,0.0006596875027753413,-0.023488890379667282,0.00042018276872113347
2024-05-13 17:19:50.713244,0.366915787861528,-2.0598392718257483,174.17207779775126,-0.03085467591881752,-0.0037682941183447838,-1.0006495714187622,0.0003012041561305523,-0.023192917928099632,0.0004396862641442567
2024-05-13 17:19:50.719500,0.3663604614654943,-2.081866845342451,174.18735010073542,-0.030053041875362396,-0.0032912769820541143,-1.0001256465911865,-8.134279050864279e-05,-0.022252483293414116,0.00084067223360762
2024-05-13 17:19:50.753009,0.36641158116256356,-2.1074668212384817,174.20491734728068,-0.03153638169169426,-0.0035935656633228064,-1.0001469850540161,0.000545552815310657,-0.023572152480483055,0.0016275433590635657
2024-05-13 17:19:50.773866,0.3668081590212474,-2.1314518842826278,174.22629583938283,-0.030771499499678612,-0.003075216431170702,-0.9998446106910706,0.0015871631912887096,-0.02282108925282955,0.0024361666291952133
2024-05-13 17:19:50.794890,0.3680010408876196,-2.1550002421067163,174.24278391603923,-0.03461742401123047,-0.0044745272025465965,-1.0002222061157227,0.0008596155676059425,-0.020828144624829292,0.0031732479110360146
2024-05-13 17:19:50.812979,0.368087272025891,-2.176801352163751,174.25797425675333,-0.03525153174996376,-0.004589254502207041,-0.9994360208511353,0.0004835544968955219,-0.0199571643024683,0.0020479231607168913
2024-05-13 17:19:50.836164,0.3683538895273595,-2.196892567050755,174.27921614507207,-0.03486095368862152,-0.004144695121794939,-1.0008114576339722,0.0016798240831121802,-0.01886112242937088,0.002851959550753236
2024-05-13 17:19:50.854906,0.36741850045661156,-2.2172377795975184,174.30439222235273,-0.033935546875,-0.0033077336847782135,-1.0007548332214355,0.001618848880752921,-0.019344031810760498,0.0021707466803491116
2024-05-13 17:19:50.872482,0.3685034066371593,-2.237254502733887,174.33075675254898,-0.03283674642443657,-0.003706816816702485,-0.9995861053466797,0.0022247417364269495,-0.019495073705911636,0.002537147607654333
2024-05-13 17:19:50.888474,0.3696846558376013,-2.2583348143900737,174.35527713166934,-0.03567538037896156,-0.00395212834700942,-0.9997212886810303,0.002065815031528473,-0.018940353766083717,0.001578143215738237
2024-05-13 17:19:50.914880,0.3691580642608492,-2.27869262009812,174.378404152199,-0.03690791130065918,-0.004755081608891487,-0.9990215301513672,0.0012248960556462407,-0.018497467041015625,0.0015282556414604187
2024-05-13 17:19:50.932928,0.37004078616979397,-2.2993479659218847,174.402869889806,-0.03825576230883598,-0.0041010999120771885,-1.0001426935195923,0.0018775914795696735,-0.01772688329219818,0.0023780586197972298
2024-05-13 17:19:50.961222,0.3697685924591984,-2.318068020333009,174.42549147633707,-0.03575945645570755,-0.004146273713558912,-0.9995360374450684,0.0006398365367203951,-0.01715911738574505,0.0007809515227563679
2024-05-13 17:19:50.975025,0.36979583317459913,-2.335322572280342,174.4446160060131,-0.0341934934258461,-0.004600166343152523,-1.0008221864700317,0.00016794046678114682,-0.01647193171083927,0.0005910966428928077
2024-05-13 17:19:50.993015,0.3694267895160068,-2.3525041265809206,174.4658442339535,-0.034049466252326965,-0.004116398748010397,-0.9993040561676025,-7.966523116920143e-05,-0.017082637175917625,0.0010306485928595066
2024-05-13 17:19:51.016027,0.3689322944922685,-2.368860508652397,174.48869804691637,-0.036778438836336136,-0.0025188052095472813,-1.0006517171859741,0.0004627957532647997,-0.016095643863081932,-0.00040007109055295587
2024-05-13 17:19:51.033987,0.3700847555125759,-2.3844096477413426,174.50559593492298,-0.03850502148270607,-0.0029881668742746115,-0.9993705749511719,0.0014865738339722157,-0.014158502221107483,-5.7028402807191014e-05
2024-05-13 17:19:51.044018,0.3698444449115826,-2.3987045933439446,174.5201715586118,-0.03798069804906845,-0.004539976827800274,-1.0004496574401855,-0.00011707737576216459,-0.013933549635112286,0.0023173363879323006
2024-05-13 17:19:51.089266,0.36989927318792776,-2.427627242827775,174.55167239106387,-0.03655917942523956,-0.003445565700531006,-0.9997787475585938,-0.00024479901185259223,-0.014012168161571026,0.000562518835067749
2024-05-13 17:19:51.097540,0.36939447951958154,-2.4428118205697715,174.56684907139964,-0.03760623186826706,-0.0034402175806462765,-1.0007760524749756,-0.0003723230620380491,-0.014880872331559658,0.0004552450845949352
2024-05-13 17:19:51.136761,0.36854361403981245,-2.459124233298466,174.5817115630336,-0.03845425322651863,-0.0033056132961064577,-0.9995941519737244,0.0003525566717144102,-0.0150721725076437,0.0006186508690007031
2024-05-13 17:19:51.148894,0.36908165151950967,-2.474811256831281,174.59052250706293,-0.039576273411512375,-0.005518518388271332,-1.000290870666504,0.00034608118585310876,-0.015181651338934898,0.0012755536008626223
2024-05-13 17:19:51.178152,0.36803890041274556,-2.4889501753000305,174.60086341346633,-0.04014679044485092,-0.005027612671256065,-0.9990690350532532,-0.0002975552051793784,-0.013435310684144497,0.003082413226366043
2024-05-13 17:19:51.197011,0.36538465154868155,-2.5027100182698443,174.61620401834216,-0.03880615532398224,-0.0022964412346482277,-1.0000078678131104,-0.00012931448873132467,-0.014111457392573357,0.0015709457220509648
2024-05-13 17:19:51.211152,0.3640431863874352,-2.515357607622004,174.62595752847693,-0.03828880190849304,-0.0035485350526869297,-0.9993858337402344,-0.0003074857813771814,-0.01374104991555214,0.00037432272802107036
2024-05-13 17:19:51.233015,0.36450144939206075,-2.527856426916304,174.6358066612601,-0.03862639144062996,-0.0036393310874700546,-0.9997746348381042,0.00015082866593729705,-0.011970794759690762,0.0017028399743139744
2024-05-13 17:19:51.257030,0.3627806419276142,-2.5398355115034486,174.63903051054834,-0.04075193777680397,-0.005323960445821285,-0.9985342621803284,-0.0004866842646151781,-0.01112053357064724,0.0008664114284329116
2024-05-13 17:19:51.273694,0.3592311313541761,-2.5509157858845017,174.6415030390279,-0.04179346561431885,-0.00320763629861176,-0.9995481967926025,-0.002240582136437297,-0.010325990617275238,0.0006770058535039425
2024-05-13 17:19:51.292977,0.35848055759741515,-2.559456937441603,174.641065906921,-0.04087066277861595,-0.003681438509374857,-0.999197781085968,-0.0007730337092652917,-0.008604748174548149,0.0005008745938539505
2024-05-13 17:19:51.317004,0.357384365596481,-2.5685417293679547,174.64497277512626,-0.04033925011754036,-0.003008330939337611,-1.0005755424499512,-8.730898844078183e-05,-0.009232287295162678,0.001178374164737761
2024-05-13 17:19:51.326654,0.35583828824482516,-2.5768623938809108,174.6491528508983,-0.04100298136472702,-0.004263019189238548,-0.9992771148681641,-0.0007248767069540918,-0.008600872941315174,0.0017767356475815177
2024-05-13 17:19:51.337713,0.3558842586195905,-2.5840618401529274,174.65176198316124,-0.04058945178985596,-0.004798760171979666,-1.0003993511199951,0.00018144301429856569,-0.007179855369031429,0.0005875623901374638
2024-05-13 17:19:51.376380,0.3555449369560584,-2.59033344791488,174.6555732287181,-0.03937680274248123,-0.0030537527054548264,-0.9995286464691162,0.0005665894714184105,-0.008234086446464062,0.0008908669697120786
2024-05-13 17:19:51.385760,0.3557253233192555,-2.596791391775127,174.66237609713144,-0.04094753414392471,-0.0012600135523825884,-1.0000251531600952,0.001468642265535891,-0.006939521990716457,2.0109640900045633e-05
2024-05-13 17:19:51.398809,0.3577870799532473,-2.601602406271755,174.66842764473608,-0.03967930004000664,-0.002601758111268282,-1.0000556707382202,0.002919806633144617,-0.0065805562771856785,0.0005814727046526968
2024-05-13 17:19:51.436269,0.36044925290396557,-2.6075361331132036,174.6697663618134,-0.04106297343969345,-0.006067157723009586,-0.999789297580719,0.0028557125478982925,-0.006105535198003054,0.0006574310245923698
2024-05-13 17:19:51.446224,0.3618596869675732,-2.6139729460757057,174.67308583375004,-0.04090370982885361,-0.005107179284095764,-1.0001320838928223,0.0020144241861999035,-0.0067344107665121555,0.0013401061296463013
2024-05-13 17:19:51.473221,0.3616940548802004,-2.6186853497161917,174.67783964541235,-0.04086263105273247,-0.0031966520473361015,-0.999575138092041,0.0017902193358168006,-0.005952249281108379,0.0007007346721366048
2024-05-13 17:19:51.496396,0.3613002251054404,-2.622355722621427,174.6851616082026,-0.040803633630275726,-0.002551041776314378,-1.0002365112304688,0.0016818530857563019,-0.005351888481527567,0.0007465153466910124
2024-05-13 17:19:51.515054,0.36275815032812075,-2.6264055979124215,174.6905847784036,-0.03986267000436783,-0.004458617884665728,-1.0002855062484741,0.002126870444044471,-0.005265162326395512,0.0017068615416064858
2024-05-13 17:19:51.532729,0.3680735849671245,-2.6301397903977146,174.69309828801818,-0.037655699998140335,-0.00655242707580328,-1.0014342069625854,0.003949693404138088,-0.0066587598994374275,0.0028768470510840416
2024-05-13 17:19:51.556985,0.3718527606514043,-2.635422514833896,174.7011579112388,-0.0387645848095417,-0.0044949958100914955,-1.0003175735473633,0.004673249088227749,-0.0065325722098350525,0.0031336438842117786
2024-05-13 17:19:51.575031,0.3763467583210082,-2.639681137781399,174.71517345941564,-0.041613128036260605,-0.0036221779882907867,-1.0000888109207153,0.004737672861665487,-0.005463692359626293,0.0023887206334620714
2024-05-13 17:19:51.592124,0.3797397615129179,-2.6449516959431216,174.7252274978739,-0.04339142516255379,-0.004221177659928799,-0.9999247193336487,0.003151812357828021,-0.004715751390904188,0.003071787767112255
2024-05-13 17:19:51.617082,0.3823897148283241,-2.64977914558244,174.73569134768238,-0.044912759214639664,-0.004714187700301409,-0.999266505241394,0.0021186356898397207,-0.005330726038664579,0.0025562779046595097
2024-05-13 17:19:51.628219,0.3838039908733399,-2.6538670138006926,174.7456361031139,-0.04389764741063118,-0.005006767343729734,-0.9981983304023743,0.0013364064507186413,-0.004297940526157618,0.0008437901851721108
2024-05-13 17:19:51.652078,0.3824998516286906,-2.655277020977477,174.76099036836808,-0.04113483428955078,-0.0035444011446088552,-1.000274896621704,0.0010226063895970583,-0.002911155577749014,0.0011104204459115863
2024-05-13 17:19:51.676086,0.38200471627471755,-2.6556082851522227,174.77348961454922,-0.041311878710985184,-0.0040399921126663685,-0.9997628927230835,4.9144535296363756e-05,-0.002007701899856329,0.0001643708674237132
2024-05-13 17:19:51.682494,0.3823245612269446,-2.6578370612557625,174.7830792001439,-0.04121104255318642,-0.0042904275469481945,-1.0005587339401245,0.0015372643247246742,-0.0031127361580729485,0.0012463309103623033
2024-05-13 17:19:51.713149,0.3828244723772513,-2.6604912300785473,174.79165791774145,-0.043270841240882874,-0.00455643841996789,-1.0002832412719727,0.000894756056368351,-0.0019677793607115746,0.0009045199840329587
2024-05-13 17:19:51.727552,0.38282124404565143,-2.66011877132537,174.80040055987908,-0.042611829936504364,-0.005263139959424734,-1.0005155801773071,0.0005217603174969554,-0.002022125758230686,0.0004395110299810767
2024-05-13 17:19:51.755026,0.3833297729737,-2.660240220626549,174.8136511268689,-0.041168324649333954,-0.005540267564356327,-0.999836802482605,0.000605566194280982,-0.0022050843108445406,0.0018641214119270444
2024-05-13 17:19:51.772094,0.3829546461778782,-2.661068594506825,174.82765301466742,-0.041954901069402695,-0.002845314797013998,-1.0007015466690063,0.0015758384251967072,-0.0022434499114751816,0.000398827251046896
2024-05-13 17:19:51.797044,0.3833227560215449,-2.659756344412536,174.83858131733945,-0.04132218658924103,-0.004426623694598675,-1.0000008344650269,0.001233971561305225,-0.0005634645349346101,0.0014758823672309518
2024-05-13 17:19:51.814927,0.38277466002107785,-2.660427623941901,174.84907248790458,-0.04267289116978645,-0.004852886777371168,-0.9999399185180664,0.0003813366056419909,-0.0009443620219826698,0.001324248150922358
2024-05-13 17:19:51.825623,0.38336966021123586,-2.660688024904008,174.86161271522073,-0.04309434816241264,-0.00516123091802001,-0.9998084902763367,0.0007164883427321911,-0.001662814524024725,0.0008928367169573903
2024-05-13 17:19:51.863068,0.3830859672368423,-2.6600348880646254,174.87800516922874,-0.041471514850854874,-0.003963024355471134,-1.0000643730163574,0.0005209054797887802,-0.0016107764095067978,0.0017684658523648977
2024-05-13 17:19:51.874380,0.3833268114463646,-2.65935400358174,174.89309988729448,-0.04118983447551727,-0.00426761619746685,-0.9994516372680664,0.00148823915515095,-0.0016228031599894166,0.0016446046065539122
2024-05-13 17:19:51.885109,0.3835330778232137,-2.6608929305791085,174.90626849201428,-0.04149555042386055,-0.0044818054884672165,-1.0003012418746948,0.0016113939927890897,-0.002128313761204481,0.000839017506223172
2024-05-13 17:19:51.917026,0.3837039392741698,-2.6613317702332817,174.91826230419682,-0.042506203055381775,-0.004392975475639105,-0.999375581741333,0.0006602657376788557,-0.0014627020573243499,0.0007735243416391313
2024-05-13 17:19:51.930419,0.38399166099295656,-2.661679682994129,174.9278245690348,-0.043071676045656204,-0.00476821418851614,-1.0003939867019653,0.000501689501106739,-0.001671743462793529,0.00092125911032781
2024-05-13 17:19:51.952983,0.3826015840947268,-2.6605398951763832,174.94022819256756,-0.04181140288710594,-0.0035335738211870193,-1.0005728006362915,0.0004173089691903442,-0.000771468854509294,0.000687369960360229
2024-05-13 17:19:51.977037,0.38284971206066865,-2.660991754878662,174.94938064605537,-0.04165560007095337,-0.004127879627048969,-1.0005805492401123,0.00033677055034786463,-0.0020059365779161453,0.0009406142053194344
2024-05-13 17:19:51.992786,0.3822766698614751,-2.6608850331728804,174.9592161184602,-0.041209373623132706,-0.004732356872409582,-0.9999756217002869,0.0001711671648081392,-0.0016705667367205024,0.0005426257848739624
2024-05-13 17:19:52.012884,0.3826643631381527,-2.6609149152504994,174.9679587605978,-0.04240482300519943,-0.004917732439935207,-0.9999808669090271,0.0006041201995685697,-0.002273842692375183,0.0004757809219881892
2024-05-13 17:19:52.037026,0.38113738897183175,-2.6617738115386285,174.97323166663708,-0.041957590728998184,-0.004134661052376032,-0.999950647354126,-0.000308311078697443,-0.002232849597930908,0.0009158841567113996
2024-05-13 17:19:52.046620,0.38110518569711216,-2.6599206958394395,174.97920125197166,-0.04164053499698639,-0.0036773013416677713,-0.999934196472168,0.0005185405607335269,-0.00045250385301187634,0.002344926819205284
2024-05-13 17:19:52.078226,0.38238365837152105,-2.660397955307694,174.98711061103054,-0.041854023933410645,-0.00486447848379612,-0.9997302889823914,0.001431936165317893,-0.0026249485090374947,0.001301274634897709
2024-05-13 17:19:52.097025,0.3831039498442665,-2.6599170673014427,174.99331242279692,-0.04117855802178383,-0.004477513022720814,-1.000591516494751,0.0008378868224099278,-0.0009826873429119587,0.0012042324524372816
2024-05-13 17:19:52.107401,0.3829061945234535,-2.659752288987716,175.00070268747885,-0.042886290699243546,-0.004186326637864113,-1.0001471042633057,0.0006833040970377624,-0.0008417100762017071,0.001449019880965352
2024-05-13 17:19:52.117801,0.3836344100828532,-2.659162544841568,175.00903551826627,-0.04272383823990822,-0.003973810467869043,-1.0016521215438843,0.0005516018718481064,-0.0014410484582185745,0.002272371668368578
2024-05-13 17:19:52.156637,0.38355026001784454,-2.658779200474401,175.0149504620875,-0.0420951321721077,-0.00424068421125412,-1.0002604722976685,0.0002754576853476465,-0.001751252100802958,0.001586432452313602
2024-05-13 17:19:52.165637,0.3833531717076926,-2.65670047508919,175.01698585846017,-0.042232219129800797,-0.004506566561758518,-1.0003771781921387,-8.146700565703213e-05,0.0009341784752905369,0.0020378504414111376
2024-05-13 17:19:52.192536,0.38243160309784335,-2.6543583605341103,175.01817431137576,-0.0416901633143425,-0.004982510581612587,-1.0003852844238281,-0.00029913050821051,0.00040939872269518673,0.0020350029226392508
2024-05-13 17:19:52.212349,0.38153914283324597,-2.6509464676002774,175.02131619839395,-0.042379725724458694,-0.0039230757392942905,-0.9999386072158813,0.0005829393630847335,0.0015666926046833396,0.0011783505324274302
2024-05-13 17:19:52.235044,0.3825194617421279,-2.647529025137744,175.02559189681438,-0.04207390546798706,-0.0045574442483484745,-1.00050687789917,0.0013916008174419403,0.0022094345185905695,0.0016035696025937796
2024-05-13 17:19:52.253210,0.3820730448468441,-2.6435425425399837,175.0262749157314,-0.04220565780997276,-0.004065639805048704,-1.000121831893921,0.0004858836764469743,0.0027176672592759132,0.001744890003465116
2024-05-13 17:19:52.273865,0.3831934093141378,-2.63691576494119,175.02514110432918,-0.04141734167933464,-0.005930087994784117,-1.0006346702575684,0.00125370011664927,0.003043524455279112,0.001908375765196979
2024-05-13 17:19:52.294938,0.382538218081919,-2.630322711401424,175.02326963249658,-0.04106518626213074,-0.00307944742962718,-0.9998329281806946,0.00020017739734612405,0.004644765518605709,0.0009664979297667742
2024-05-13 17:19:52.313000,0.3825557738025201,-2.623116434940237,175.0263841987581,-0.04169486090540886,-0.004498501308262348,-0.9999756217002869,0.0006253889296203852,0.004292152356356382,0.001543606398627162
2024-05-13 17:19:52.336259,0.3828941616511266,-2.616244410861558,175.02848789702247,-0.04048393294215202,-0.004286095965653658,-0.9999451041221619,0.0008635968551971018,0.004275898449122906,0.0012981757754459977
2024-05-13 17:19:52.355051,0.38363833210554066,-2.610087849098438,175.0278458592405,-0.041443098336458206,-0.004832558333873749,-1.0007318258285522,0.0005296152667142451,0.004996561910957098,0.001486429711803794
2024-05-13 17:19:52.372371,0.3836170144448108,-2.6017849003886413,175.02878842534597,-0.041509781032800674,-0.004483914468437433,-1.0006147623062134,-0.0001119053631555289,0.006239012815058231,0.002026419620960951
2024-05-13 17:19:52.388137,0.38404080633846893,-2.592580793595226,175.02836495361743,-0.04074866324663162,-0.004527539014816284,-1.000073790550232,0.0005731259589083493,0.006550789810717106,0.0007119247457012534
2024-05-13 17:19:52.399813,0.38325808266784134,-2.5830964356024286,175.02664374594656,-0.04088342934846878,-0.00423464784398675,-1.0002851486206055,3.9319798815995455e-05,0.006348613649606705,0.0005325351958163083
2024-05-13 17:19:52.432897,0.383717012683128,-2.572706650657781,175.02563287794942,-0.040603157132864,-0.004757001530379057,-1.0006686449050903,0.0011977285612374544,0.0075270333327353,0.0015302670653909445
2024-05-13 17:19:52.447084,0.38370767453387217,-2.561480380983219,175.02699891578342,-0.040057748556137085,-0.005451448727399111,-1.0000959634780884,-2.0986772142350674e-05,0.007615475915372372,0.0012058966094627976
2024-05-13 17:19:52.461322,0.3831528283855144,-2.549348897800219,175.02717650070184,-0.040044333785772324,-0.003629352431744337,-1.0005426406860352,1.5486657503060997e-05,0.009455976076424122,0.001173218130134046
2024-05-13 17:19:52.492418,0.3827785820437653,-2.5376163403534293,175.0270672176751,-0.04011091589927673,-0.004877723753452301,-0.9993419051170349,0.0003669553261715919,0.00952822994440794,8.63495806697756e-05
2024-05-13 17:19:52.508950,0.38278095660171896,-2.5259503772510477,175.0226275947146,-0.03951513394713402,-0.004377750214189291,-1.0002368688583374,0.0011869807494804263,0.00849961582571268,-0.0004512281157076359
2024-05-13 17:19:52.535050,0.38254475478639816,-2.514631473135867,175.0200594435867,-0.039197228848934174,-0.004640772007405758,-0.9998685121536255,0.0007108223508112133,0.008873668499290943,0.00023110531037673354
2024-05-13 17:19:52.552890,0.38225756667614025,-2.5027524935087455,175.02295544379476,-0.03924357518553734,-0.004048896953463554,-1.0002005100250244,-4.538116627372801e-06,0.008431832306087017,6.367470632540062e-06
2024-05-13 17:19:52.576882,0.381452938375401,-2.49053840772547,175.0252230665992,-0.0390932597219944,-0.003406365169212222,-0.9997056722640991,0.00014224223559722304,0.008714059367775917,0.0005276665324345231
2024-05-13 17:19:52.594174,0.3812248207292932,-2.477781108459767,175.02608367043462,-0.03909749165177345,-0.0040162792429327965,-1.0001614093780518,0.0010823342017829418,0.009476951323449612,0.0008875720668584108
2024-05-13 17:19:52.606004,0.38117722284851463,-2.4648675686168002,175.02869280269758,-0.038527484983205795,-0.0051740361377596855,-1.000473976135254,0.00052833859808743,0.010522903874516487,0.0019678412936627865
2024-05-13 17:19:52.636673,0.3810712215142472,-2.449569438979853,175.0301681235583,-0.038475025445222855,-0.004476370755583048,-0.9999364018440247,0.000634046271443367,0.011666152626276016,0.0012983293272554874
2024-05-13 17:19:52.654638,0.3808614066406809,-2.4344732268102436,175.0316707651757,-0.03793656453490257,-0.004427493084222078,-1.0001548528671265,0.0006513888365589082,0.011413234286010265,0.0018488666974008083
2024-05-13 17:19:52.666624,0.38130667627762754,-2.4214943732833385,175.03785891656372,-0.0374336838722229,-0.003714580088853836,-0.9998573660850525,0.0009497598512098193,0.01030473317950964,0.0014061621623113751
2024-05-13 17:19:52.697018,0.3818184602177025,-2.4078079548471023,175.03660216175643,-0.03749537840485573,-0.004231187980622053,-0.9999740719795227,0.0012337001971900463,0.010574694722890854,0.0015502878231927752
2024-05-13 17:19:52.712234,0.3825249579099757,-2.3934820599498234,175.03355589738663,-0.037246037274599075,-0.005292893387377262,-1.0000423192977905,0.0014934779610484838,0.011909804306924343,0.0009167094831354916
2024-05-13 17:19:52.732893,0.38243800640019027,-2.38008549766649,175.0309877462587,-0.03723588213324547,-0.005078849848359823,-1.0001829862594604,0.0008543254807591438,0.00928980577737093,0.0011180299334228039
2024-05-13 17:19:52.763057,0.3816790816699519,-2.3674671500617146,175.0311653311771,-0.036896806210279465,-0.0036943990271538496,-1.0003318786621094,0.0010247164173051715,0.009879719465970993,0.0011952109634876251
2024-05-13 17:19:52.773913,0.3808103936653174,-2.3523314508609663,175.03471702954553,-0.03612431883811951,-0.004074266646057367,-1.0002397298812866,0.00040930547402240336,0.01082521304488182,0.0010996551718562841
2024-05-13 17:19:52.778147,0.3803119499384651,-2.336197049937515,175.03224450106597,-0.03645635396242142,-0.004062183666974306,-1.0007368326187134,0.00038551041507162154,0.011473281309008598,0.0022748808842152357
2024-05-13 17:19:52.817017,0.37918000616609415,-2.320043225663612,175.02697159502674,-0.035831302404403687,-0.006304845679551363,-1.0004879236221313,-9.952278924174607e-05,0.012004978023469448,0.0013576984638348222
2024-05-13 17:19:52.825280,0.3773819055062354,-2.3039329438456675,175.0277502365921,-0.035910334438085556,-0.004786577075719833,-1.0001801252365112,-0.0006397818797267973,0.012277570553123951,0.0018836933886632323
2024-05-13 17:19:52.852964,0.37614003837690957,-2.286509558159788,175.02888404799432,-0.035169508308172226,-0.004118152894079685,-1.000259518623352,-0.0011461738031357527,0.01368432492017746,0.001458517974242568
2024-05-13 17:19:52.876369,0.3737155613453931,-2.2687152078246124,175.03393838798013,-0.03452761098742485,-0.0034646957647055387,-1.0000667572021484,-0.0008006125572137535,0.013637268915772438,0.002550967503339052
2024-05-13 17:19:52.884783,0.3710715577650841,-2.2517044082532838,175.0382550675356,-0.03786420449614525,-0.005173601675778627,-0.9971846342086792,-0.0020923446863889694,0.014573137275874615,0.0027873925864696503
2024-05-13 17:19:52.898732,0.3686812583598441,-2.2327060236334817,175.04244880368597,-0.03881705924868584,-0.004508253186941147,-0.9994579553604126,-0.000788924633525312,0.015777569264173508,0.003426693379878998
2024-05-13 17:19:52.936371,0.36614867224037095,-2.212498055200353,175.04503061519225,-0.03991927206516266,-0.0057487026788294315,-0.9982818365097046,-0.0019366578198969364,0.018204649910330772,0.00292777456343174
2024-05-13 17:19:52.946281,0.36259574657234783,-2.189059407289808,175.04833642675052,-0.03598029166460037,-0.004077139776200056,-1.0001318454742432,-0.0027369875460863113,0.019022518768906593,0.002793024992570281
2024-05-13 17:19:52.978993,0.3589436497592273,-2.1643983689612423,175.05806261612864,-0.035007890313863754,-0.003141050459817052,-0.9988263845443726,-0.002028597053140402,0.021248500794172287,0.003465758403763175
2024-05-13 17:19:52.996861,0.3555813290577299,-2.136335469539187,175.06108155974178,-0.03192441910505295,-0.0053356848657131195,-1.0001263618469238,-0.0027931686490774155,0.022252747789025307,0.0037026831414550543
2024-05-13 17:19:53.015021,0.35052082589341155,-2.1084571986681335,175.06299401270937,-0.03188225254416466,-0.00482583325356245,-1.000888705253601,-0.0035322338808327913,0.022447528317570686,0.0036358251236379147
2024-05-13 17:19:53.029783,0.34535282729094485,-2.082200884281547,175.06509771097373,-0.032207801938056946,-0.00352342682890594,-1.0002750158309937,-0.003347738878801465,0.021026479080319405,0.0038303083274513483
2024-05-13 17:19:53.056168,0.34075432239095443,-2.055623764447381,175.0742638248399,-0.0323658250272274,-0.0017015499761328101,-1.0010408163070679,-0.0025715548545122147,0.021672695875167847,0.0038514742627739906
2024-05-13 17:19:53.074074,0.33657990286931305,-2.028302580880507,175.0839626934613,-0.029391435906291008,-0.0034473352134227753,-1.0007928609848022,-0.002187382895499468,0.022137833759188652,0.003942275419831276
2024-05-13 17:19:53.086146,0.33429093572371255,-2.0021753997579155,175.09173544873678,-0.028864823281764984,-0.004728903993964195,-0.9985049366950989,-0.000956387200858444,0.021152125671505928,0.004286764655262232
2024-05-13 17:19:53.116978,0.33445912913202414,-1.972980823367754,175.1050543176183,-0.028871744871139526,-0.0007881648489274085,-0.998380720615387,0.0017667076317593455,0.023870449513196945,0.003145898226648569
2024-05-13 17:19:53.134884,0.3337649044359158,-1.9425316266044255,175.1177448090962,-0.03014260157942772,-0.0007337426068261266,-1.0022661685943604,0.0014703297056257725,0.024599183350801468,0.001332836807705462
2024-05-13 17:19:53.149034,0.33373235431565246,-1.9123112411782925,175.12611862101863,-0.028260430321097374,-0.0025637224316596985,-0.998647928237915,0.0009665723191574216,0.025389423593878746,0.001284074387513101
2024-05-13 17:19:53.176144,0.33422418129674625,-1.8807367707492044,175.13468367823782,-0.030039994046092033,-0.004525415599346161,-1.0019733905792236,0.0010740077123045921,0.025740962475538254,0.0016125915572047234
2024-05-13 17:19:53.194868,0.33389134297684037,-1.8485864299957198,175.1372381689874,-0.026683971285820007,-0.0042175170965492725,-1.001063346862793,0.0002557119005359709,0.025180477648973465,0.00036503784940578043
2024-05-13 17:19:53.211496,0.3329279928191777,-1.8171918923625794,175.14473771669608,-0.023189526051282883,-0.0029562157578766346,-1.0002648830413818,0.0007395343272946775,0.024111323058605194,0.000837658008094877
2024-05-13 17:19:53.236082,0.33099963831741264,-1.7884342346358868,175.15502398158614,-0.025324413552880287,-0.0017278160667046905,-1.002246379852295,0.0002858071820810437,0.022671528160572052,0.0009098422015085816
2024-05-13 17:19:53.255069,0.33264819518704514,-1.758106914060561,175.1603105480037,-0.02800784818828106,-0.004757543560117483,-0.9989058375358582,0.000854285666719079,0.02558804117143154,0.0002873025950975716
2024-05-13 17:19:53.265204,0.3329951741329671,-1.7261133474928692,175.16479115209924,-0.02892136014997959,-0.005062388721853495,-1.002834677696228,0.0009072860702872276,0.026841381564736366,0.0007249118643812835
2024-05-13 17:19:53.297024,0.33344764748505396,-1.6926541717396808,175.1723180205646,-0.025209123268723488,-0.0035338778980076313,-0.9980723261833191,0.0004492512671276927,0.027537481859326363,0.0018028204794973135
2024-05-13 17:19:53.314859,0.3317101647540791,-1.6612698793902954,175.1877405877105,-0.026224616914987564,-0.0016432276461273432,-1.0016437768936157,-0.00015846756286919117,0.026701578870415688,0.0031555520836263895
2024-05-13 17:19:53.324355,0.33185557307820635,-1.6276017425371867,175.20104579621366,-0.021728238090872765,-0.00257170875556767,-0.9992245435714722,0.0014099408872425556,0.027251580730080605,0.0018330661114305258
2024-05-13 17:19:53.356317,0.3336201631224497,-1.5962367668165478,175.20713832495332,-0.024955641478300095,-0.0058082714676856995,-1.0008196830749512,0.0014179882127791643,0.02629910595715046,0.00214810180477798
2024-05-13 17:19:53.374386,0.33491861943626616,-1.5682653278963472,175.21611319352272,-0.02501785010099411,-0.0051230015233159065,-1.0011553764343262,0.0006987095111981034,0.024040382355451584,0.0031872973777353764
2024-05-13 17:19:53.385010,0.3322679991101987,-1.5373210491398988,175.22999213791618,-0.025111032649874687,-0.0008819284266792238,-0.9997007846832275,0.0002567766059655696,0.027094615623354912,0.002658295910805464
2024-05-13 17:19:53.417005,0.3315664639772444,-1.5030439582336013,175.239144591404,-0.023046940565109253,-0.002111160894855857,-1.0012836456298828,0.0007399119785986841,0.028282441198825836,0.0011911456240341067
2024-05-13 17:19:53.434778,0.33026824778726593,-1.4659283901186346,175.24359787474285,-0.01658942922949791,-0.0027236738242208958,-0.9995290040969849,6.467656930908561e-05,0.028711581602692604,0.00025130718131549656
2024-05-13 17:19:53.453005,0.33248389712099463,-1.432765260377284,175.2396910065376,-0.018963882699608803,-0.005960449576377869,-1.0015312433242798,0.002347842324525118,0.027110954746603966,6.531551480293274e-05
2024-05-13 17:19:53.464661,0.33203022314971764,-1.3995685132986122,175.24000519523943,-0.018105080351233482,-0.003604229772463441,-1.0007528066635132,0.0011821903754025698,0.026995662599802017,-0.0009483345784246922
2024-05-13 17:19:53.494406,0.33341056169229494,-1.3676129396581787,175.2443628559299,-0.021193964406847954,-0.0028944287914782763,-1.0001946687698364,0.001962484559044242,0.0270631592720747,0.00021841051056981087
2024-05-13 17:19:53.510771,0.3333505574132193,-1.336182863697013,175.2459611201957,-0.021112140268087387,-0.0026071106549352407,-1.000327229499817,0.0017542887944728136,0.02657999098300934,0.001008598948828876
2024-05-13 17:19:53.537038,0.33425091508404453,-1.3023505888604126,175.24585183716897,-0.019570108503103256,-0.0034744511358439922,-1.0007940530776978,0.0019184044795110822,0.02763921208679676,0.0006857176194898784
2024-05-13 17:19:53.554138,0.33615736495569787,-1.2662484500635465,175.24156247837018,-0.017699720337986946,-0.0054052951745688915,-1.0004040002822876,0.0022181966342031956,0.03025914914906025,0.00018821287085302174
2024-05-13 17:19:53.572974,0.3357452857692492,-1.2287530593977039,175.24254602561066,-0.017643306404352188,-0.003707914613187313,-1.0015511512756348,0.0016016692388802767,0.03059394285082817,0.00020353301079012454
2024-05-13 17:19:53.596221,0.33528782317741707,-1.1935842019178966,175.24158979912687,-0.016495855525135994,-0.003774217562749982,-1.000980019569397,0.0008503581047989428,0.02912193164229393,0.0014219963923096657
2024-05-13 17:19:53.605872,0.3340404065193906,-1.159139664655228,175.24526444090034,-0.01614055223762989,-0.0013575355987995863,-1.00042724609375,0.0014336692402139306,0.02949652075767517,0.0014699576422572136
2024-05-13 17:19:53.617826,0.3332985305816509,-1.1250514711681638,175.24398036533637,-0.013820385560393333,-0.003841629484668374,-1.0018391609191895,0.0008120361599139869,0.027524584904313087,0.0006744784186594188
2024-05-13 17:19:53.662992,0.33261644547957514,-1.0896228530564844,175.2444994597133,-0.011567359790205956,-0.0032448582351207733,-0.9991320371627808,-0.00014934345381334424,0.02798621356487274,0.0014128362527117133
2024-05-13 17:19:53.666291,0.33347152646672257,-1.0544734189271294,175.2407428556698,-0.013942440040409565,-0.004695513751357794,-1.001212477684021,0.002003661124035716,0.029079299420118332,-0.0001378386514261365
2024-05-13 17:19:53.693078,0.33559816989782953,-1.0189679611872875,175.23777855357,-0.015890970826148987,-0.0037145684473216534,-1.0006691217422485,0.0017476112116128206,0.031118646264076233,9.958198643289506e-05
2024-05-13 17:19:53.712212,0.3382653587687195,-0.9829343377255333,175.2378878365967,-0.017298420891165733,-0.004216194152832031,-1.0005956888198853,0.003179632592946291,0.03168480470776558,0.0011598773999139667
2024-05-13 17:19:53.719371,0.340065300378003,-0.9459174871884145,175.2367267044378,-0.014564994722604752,-0.003652577055618167,-0.9986515045166016,0.002408099127933383,0.03209780156612396,0.0013190568424761295
2024-05-13 17:19:53.752204,0.3406149438432039,-0.9079600982582438,175.2406745537781,-0.01239755842834711,-0.003139377571642399,-1.0006901025772095,0.0010376786813139915,0.03168748691678047,0.0010241507552564144
2024-05-13 17:19:53.773798,0.34136954634435807,-0.8690194822527085,175.24669878062605,-0.006249879952520132,-0.0038929719012230635,-0.999316930770874,0.001699385466054082,0.031537678092718124,0.001203786814585328
2024-05-13 17:19:53.794794,0.34064893470649527,-0.8303718706903963,175.24639825230255,-0.011116140522062778,-0.003378919791430235,-1.001589059829712,6.557986489497125e-05,0.0320918932557106,0.0012139668688178062
2024-05-13 17:19:53.812879,0.33912641617139067,-0.790850261718587,175.24790089391996,-0.00994153507053852,-0.0029832390137016773,-1.0007438659667969,1.7651418602326885e-05,0.033384501934051514,0.0008331279968842864
2024-05-13 17:19:53.836179,0.33776782217636636,-0.7500378003544981,175.25141161115334,-0.008911876007914543,-0.003399060806259513,-1.0000375509262085,4.730108776129782e-05,0.03390523046255112,0.00032946059945970774
2024-05-13 17:19:53.854888,0.33616769028073223,-0.7113946711038286,175.25792761162154,-0.007124978583306074,-0.0030709258280694485,-1.0022062063217163,0.001004486344754696,0.03159070760011673,0.0022238558158278465
2024-05-13 17:19:53.878930,0.3359710288574035,-0.672165693049272,175.26437531019803,-0.004895310383290052,-0.0036986677441745996,-0.9992256164550781,0.0007115751504898071,0.03234795480966568,0.0012265571858733892
2024-05-13 17:19:53.887265,0.33720550550860395,-0.6339663660120947,175.2662058008956,-0.006282198708504438,-0.00456261308863759,-1.0021706819534302,0.0020305791404098272,0.031174827367067337,0.0013451671693474054
2024-05-13 17:19:53.914812,0.3377354854995146,-0.5969311059807286,175.27038587666763,-0.006977270357310772,-0.003423755057156086,-1.000249981880188,0.0014981641434133053,0.03145497664809227,0.0009332679328508675
2024-05-13 17:19:53.932912,0.33839035656661604,-0.5608603433653624,175.2767925941091,-0.009149185381829739,-0.002515825442969799,-1.0017579793930054,0.0018346611177548766,0.03177348151803017,0.00023321228218264878
2024-05-13 17:19:53.948630,0.33650453066460495,-0.5235024102565661,175.28206550014838,-0.005768990144133568,-0.0031669510062783957,-1.0007532835006714,0.0005481095286086202,0.03203384578227997,-0.00030137228895910084
2024-05-13 17:19:53.975012,0.3367058078017087,-0.48359937790829377,175.28662806651394,-0.002594409044831991,-0.004923384170979261,-1.0007532835006714,0.0005210422677919269,0.032116085290908813,-0.0005845449632033706
2024-05-13 17:19:53.992878,0.3375822598104389,-0.444593848425217,175.28725644391758,-7.043409277684987e-05,-0.005217308644205332,-1.0009735822677612,2.28083117690403e-05,0.030627785250544548,0.00041764689376577735
2024-05-13 17:19:54.016160,0.3364633894470262,-0.4079015119149531,175.29073984039428,-0.0007670908817090094,-0.0025665010325610638,-1.0005007982254028,0.000295634672511369,0.029805883765220642,0.001720441854558885
2024-05-13 17:19:54.034653,0.33614317096882895,-0.3717099936894952,175.29154580271634,-0.0027191387489438057,-0.002946089720353484,-0.9988784790039062,0.00021442475554067641,0.031115567311644554,0.0017917416989803314
2024-05-13 17:19:54.044250,0.3368377158300546,-0.33313068401888307,175.29024806677404,-0.0035653223749250174,-0.003799635451287031,-1.0007325410842896,0.0015172678977251053,0.03267594799399376,0.0014712559059262276
2024-05-13 17:19:54.076350,0.33619453078973627,-0.2952191320613455,175.29270693487524,-0.00150699180085212,-0.004193947650492191,-1.000204086303711,0.000250746204983443,0.031594276428222656,0.0016412247205153108
2024-05-13 17:19:54.094129,0.336644416140458,-0.2579145331250135,175.30382648284402,-0.0001472189323976636,-0.0006065313937142491,-0.99888676404953,0.001158339437097311,0.031701430678367615,0.0015151663683354855
2024-05-13 17:19:54.105088,0.33884931326232914,-0.21824298015658114,175.305151539543,-7.674965308979154e-05,-0.003342382377013564,-1.0015478134155273,0.0026685651391744614,0.032710570842027664,0.00012310800957493484
2024-05-13 17:19:54.137009,0.3413120767057948,-0.18076574552093438,175.3035805960339,0.0009938188595697284,-0.004316630307585001,-1.0006366968154907,0.002299861516803503,0.031249402090907097,0.0001194100477732718
2024-05-13 17:19:54.149596,0.3425404969001921,-0.14340659845273482,175.30418165268085,0.0004979823133908212,-0.004977444652467966,-1.0008193254470825,0.0020152416545897722,0.030299095436930656,0.0006428956985473633
2024-05-13 17:19:54.172897,0.342817439726695,-0.10549818144530458,175.30639463397196,0.0019980331417173147,-0.003182860091328621,-1.000939130783081,0.001404523034580052,0.031748928129673004,0.0001487706322222948
2024-05-13 17:19:54.196900,0.34427477797999356,-0.06464748703011945,175.30844369072295,0.004259335808455944,-0.0027627618983387947,-0.9997647404670715,0.0021214215084910393,0.033453892916440964,0.0005157534033060074
2024-05-13 17:19:54.211586,0.34557771660545283,-0.025917484643417296,175.3063126717019,0.0037283110432326794,-0.0046280547976493835,-1.0022815465927124,0.0016072324942797422,0.03251378610730171,0.0009693421889096498
2024-05-13 17:19:54.232859,0.3452918091556643,0.011981906042241149,175.30319810544037,0.0052825636230409145,-0.00468945549800992,-0.9992965459823608,0.0005668164812959731,0.031673625111579895,0.0023009702563285828
2024-05-13 17:19:54.257009,0.34653589076038516,0.05062863048037407,175.30483735084118,0.00400475412607193,-0.0036189306993037462,-1.0024760961532593,0.0012302253162488341,0.03257961943745613,0.002407792257145047
2024-05-13 17:19:54.273957,0.3464496863025402,0.09158691371520011,175.30694104910555,0.007581896148622036,-0.0009572682320140302,-0.9995718002319336,0.0008143742452375591,0.03332521766424179,0.002268454059958458
2024-05-13 17:19:54.292790,0.3481367963883862,0.13157653738750086,175.30670882267378,0.007341546472162008,-0.0023227534256875515,-1.0005933046340942,0.002133260015398264,0.03274647518992424,0.003631230443716049
2024-05-13 17:19:54.317047,0.3504188266231109,0.17162743265913336,175.3042636149509,0.00784018263220787,-0.004384561907500029,-0.9994067549705505,0.0017326601082459092,0.033993273973464966,0.0024832109920680523
2024-05-13 17:19:54.327148,0.3507674063946196,0.2097745861223967,175.2992775768568,0.007311356719583273,-0.005136857274919748,-1.0009499788284302,0.00105271115899086,0.03247079625725746,0.0015760705573484302
2024-05-13 17:19:54.337346,0.35091433550305423,0.24901311576962082,175.30067093544747,0.008974961005151272,-0.0024503949098289013,-1.0008119344711304,0.0014040323439985514,0.032694198191165924,0.0018694426398724318
2024-05-13 17:19:54.377006,0.3499705687784024,0.2862794549744302,175.30476904894948,0.009365043602883816,-0.0016872566193342209,-1.001443862915039,0.0002026201254921034,0.03175271302461624,0.0007544302497990429
2024-05-13 17:19:54.384538,0.3505894746306555,0.3234634050223763,175.29860821831815,0.010240599513053894,-0.0043827504850924015,-1.00121009349823,0.00031117029720917344,0.030666254460811615,0.001282554236240685
2024-05-13 17:19:54.398642,0.35168233157828394,0.3584916833352429,175.2914228593113,0.009678843431174755,-0.006273381412029266,-1.0005288124084473,0.000254728423897177,0.02961871400475502,0.0008212198154069483
2024-05-13 17:19:54.436056,0.3551562031427495,0.3933090528770589,175.2856581796518,0.009074549190700054,-0.006794409826397896,-1.000518798828125,0.002157618524506688,0.029930975288152695,0.0018258194904774427
2024-05-13 17:19:54.455006,0.35379942341672344,0.4293634337105877,175.2887317647783,0.010792417451739311,-0.0010841432958841324,-1.0000889301300049,0.0007802227046340704,0.030602291226387024,0.001131633180193603
2024-05-13 17:19:54.472036,0.3560846819830481,0.46813076034636025,175.28724278353923,0.01196792908012867,-0.0027672487776726484,-0.9990634918212891,0.0026720361784100533,0.0315294973552227,0.0007665512384846807
2024-05-13 17:19:54.496770,0.3572912242277603,0.5059157403608411,175.28754331186272,0.012675415724515915,-0.0021775111090391874,-1.001070499420166,0.002849660813808441,0.03158770501613617,0.0007578179938718677
2024-05-13 17:19:54.514744,0.35973328366030427,0.5454035719127706,175.2818332737166,0.014974210411310196,-0.0063398308120667934,-0.9997445940971375,0.002257285173982382,0.031855031847953796,0.0015173994470387697
2024-05-13 17:19:54.527729,0.3592173642541303,0.5832649646685909,175.28179229258157,0.013760566711425781,-0.0037025571800768375,-1.0019381046295166,0.0011760493507608771,0.03168334439396858,0.0010106009431183338
2024-05-13 17:19:54.562781,0.356864310724208,0.6213078910459454,175.2870651986208,0.015272640623152256,-0.0020901174284517765,-0.9995527863502502,-0.00016516116738785058,0.03119494393467903,0.0018704895628616214
2024-05-13 17:19:54.574789,0.3569015832799522,0.6592615980772667,175.29471501049122,0.014994212426245213,-0.002471894258633256,-1.0017380714416504,0.0011931975604966283,0.0309581458568573,0.0015218524495139718
2024-05-13 17:19:54.586154,0.35674483577458566,0.6969142965374313,175.29933221837015,0.018217962235212326,-0.005171705037355423,-1.0012335777282715,0.000160381750902161,0.030843228101730347,0.0018781623803079128
2024-05-13 17:19:54.616844,0.35617240722520044,0.7326712973378001,175.30602580375677,0.0172242633998394,-0.005737880244851112,-1.0013885498046875,-0.0007657192181795835,0.03014536201953888,0.0013422834454104304
2024-05-13 17:19:54.634924,0.3575344963560891,0.7688730074861602,175.31588859691826,0.01831529289484024,-0.004505971446633339,-1.0007153749465942,0.0006473306566476822,0.029935548081994057,0.0023700266610831022
2024-05-13 17:19:54.648819,0.35786656094362806,0.8075445247105675,175.3262704844567,0.01674708165228367,-0.0035940890666097403,-1.0014135837554932,0.0008858623914420605,0.03239250183105469,0.0017588380724191666
2024-05-13 17:19:54.676958,0.35857561995684,0.8454015418764508,175.3375676173439,0.017827410250902176,-0.002258255612105131,-1.0004489421844482,0.0017645639600232244,0.031657274812459946,0.0011695537250488997
2024-05-13 17:19:54.695004,0.3574928215299814,0.8830659263633984,175.3494384861214,0.02021419256925583,-0.0015854488592594862,-1.0000278949737549,0.0010130377486348152,0.03048899956047535,-0.0003858556447084993
2024-05-13 17:19:54.711436,0.35727945815969786,0.9202657512650796,175.36143229830392,0.023728739470243454,-0.003156365593895316,-1.0015087127685547,0.0009996879380196333,0.030148055404424667,0.0003703597467392683
2024-05-13 17:19:54.737098,0.35744036781158983,0.9585822587352049,175.37488777096883,0.023616282269358635,-0.0038969360757619143,-1.000064492225647,0.0017630490474402905,0.03064359538257122,0.00018984735652338713
2024-05-13 17:19:54.755008,0.35735168207408546,0.9945612406835991,175.38761924358175,0.02253485657274723,-0.004052229691296816,-1.0018529891967773,-8.766452083364129e-05,0.030924810096621513,-0.0004879777261521667
