sTimestamp,sRoll,sPitch,sYaw,sAcc_x,sAcc_y,sAcc_z,sGyro_x,sGyro_y,sGyro_z
2024-05-13 17:16:08.775211,0.39581271741426527,0.21328714430520798,170.60367278663477,0.006465178448706865,-0.006782182492315769,-0.9997764229774475,0.002027933020144701,0.008825477212667465,0.0029466005507856607
2024-05-13 17:16:08.791562,0.3974604205102515,0.224523765985231,170.60923256061918,0.011184719391167164,-0.0047607687301933765,-1.0029748678207397,0.0029181097634136677,0.0069544087164103985,0.0013588041765615344
2024-05-13 17:16:08.806647,0.40265168444457855,0.23743322372295178,170.61886312734887,0.013977435417473316,-0.0048805419355630875,-0.9979764223098755,0.004176141694188118,0.007842231541872025,0.0015498542925342917
2024-05-13 17:16:08.837611,0.40419330616501803,0.24278483702021544,170.63160826034013,0.00473989499732852,-0.0024926236364990473,-1.002404808998108,0.0025764908641576767,0.004620775114744902,0.00044383335625752807
2024-05-13 17:16:08.846827,0.40754047238429447,0.25067141099490586,170.6335480340644,0.004017354920506477,-0.005728619173169136,-1.0018407106399536,0.0030094424728304148,0.007214736193418503,0.00029159715631976724
2024-05-13 17:16:08.873612,0.4135133927721913,0.26286055057945473,170.62567965614056,0.00977752823382616,-0.008195042610168457,-1.005645990371704,0.0047776829451322556,0.008113236166536808,0.0001703325833659619
2024-05-13 17:16:08.898514,0.4165419680192837,0.2747214408774463,170.62376720317295,0.012283598072826862,-0.005187826696783304,-1.0009998083114624,0.00290197366848588,0.007642789743840694,0.0011621084995567799
2024-05-13 17:16:08.902891,0.4180685953400609,0.2860132376793584,170.6337802604962,0.012109808623790741,-0.0021799863316118717,-0.9997572898864746,0.003223118605092168,0.007990887388586998,0.00017485446005593985
2024-05-13 17:16:08.934403,0.4196940736408182,0.29936775161061424,170.65043226169269,0.008720631711184978,-0.0031666522845625877,-0.9990500807762146,0.002882343716919422,0.010170137509703636,0.0019593434408307076
2024-05-13 17:16:08.950321,0.42401288763038186,0.3121582146463887,170.65742637540276,0.007437476422637701,-0.008110597729682922,-1.0019575357437134,0.003338450565934181,0.010079729370772839,0.001097758999094367
2024-05-13 17:16:08.962797,0.42603499715067583,0.32268284246629075,170.6734499991956,0.010979890823364258,-0.003764163935557008,-0.9968779683113098,0.0033711441792547703,0.007791999261826277,-0.0006055333069525659
2024-05-13 17:16:08.993817,0.42704567838485263,0.33287393827519934,170.68817588704616,0.010266131721436977,-0.0018610667902976274,-1.0037447214126587,0.002330903895199299,0.007293659262359142,0.0015872427029535174
2024-05-13 17:16:09.009566,0.4287495437785063,0.3460084720904132,170.69191883071133,0.010622799396514893,-0.0034866712521761656,-1.0078370571136475,0.0032014488242566586,0.00953635573387146,-0.0006769447354599833
2024-05-13 17:16:09.035723,0.43402279666329996,0.35796365101546274,170.6804714336624,0.014229304157197475,-0.007414254825562239,-1.006692886352539,0.003686996642500162,0.007965289056301117,-0.0016845287755131721
2024-05-13 17:16:09.054351,0.4339174890201201,0.36425801718117323,170.6800343015555,0.013277500867843628,-0.005570634733885527,-1.0035139322280884,0.0008610723889432847,0.005144565831869841,-0.00043204566463828087
2024-05-13 17:16:09.077780,0.4305106653673118,0.37160468604631536,170.70384434100217,0.010227951221168041,-0.00014469637244474143,-1.0009229183197021,6.658537313342094e-05,0.007155280560255051,0.0019421963952481747
2024-05-13 17:16:09.095655,0.43234539825268004,0.38449658806343506,170.72087883279218,0.009169859811663628,-0.0037350973580032587,-1.0043495893478394,0.0014205927727743983,0.010245965793728828,0.0004280312859918922
2024-05-13 17:16:09.108270,0.43855702841598354,0.39711389513157913,170.72232683289624,0.01295116450637579,-0.010127248242497444,-1.0020849704742432,0.003343102987855673,0.00894889235496521,-0.0005923310527577996
2024-05-13 17:16:09.138211,0.4400690615434951,0.4037511848183919,170.73314585254153,0.01081240363419056,-0.005935187917202711,-1.0059001445770264,0.001961671281605959,0.005486976355314255,0.0009441439178772271
2024-05-13 17:16:09.156158,0.44239025864424164,0.4139518589003944,170.74216170224594,0.010178367607295513,-0.004941020626574755,-1.0094605684280396,0.0026427002158015966,0.007696222048252821,-0.0009281763923354447
2024-05-13 17:16:09.168221,0.44670050821691637,0.42786570129165086,170.7433091740265,0.013495330698788166,-0.005176563747227192,-1.0077989101409912,0.00421455642208457,0.00975065678358078,-0.0016054415609687567
2024-05-13 17:16:09.198377,0.4492181266171536,0.44108801370986994,170.74554947607427,0.012662570923566818,-0.006846791598945856,-1.0046045780181885,0.001921426854096353,0.009260233491659164,0.0002177271235268563
2024-05-13 17:16:09.213627,0.4502682148411902,0.4531831581520518,170.7604392884649,0.011012018658220768,-0.004172215238213539,-1.0038517713546753,0.0021484948229044676,0.01049653347581625,0.0005686486838385463
2024-05-13 17:16:09.234517,0.4532464441235802,0.4692782321269224,170.77362155356303,0.014579889364540577,-0.004501103889197111,-1.0038228034973145,0.004491289611905813,0.011469216085970402,-0.0008102559950202703
2024-05-13 17:16:09.258525,0.45708853225341817,0.4846536816397087,170.78263740326744,0.0158850084990263,-0.006664403714239597,-1.003163456916809,0.0031723531428724527,0.010508839972317219,-4.7781155444681644e-05
2024-05-13 17:16:09.275577,0.4595901423977882,0.4928896091182747,170.78942661130245,0.012788938358426094,-0.006418184377253056,-1.0086491107940674,0.0024279060307890177,0.0065630641765892506,-0.0007768994546495378
2024-05-13 17:16:09.294516,0.4597207697656647,0.5013946887388215,170.8005051781362,0.015359279699623585,-0.002274071564897895,-1.0064709186553955,0.0022301948629319668,0.0061331274919211864,5.315523594617844e-07
2024-05-13 17:16:09.315541,0.45727668262071086,0.5129162040124281,170.81243068842704,0.015786007046699524,-0.003385647665709257,-1.000806450843811,0.00026657647686079144,0.007193694822490215,0.0013999823713675141
2024-05-13 17:16:09.336446,0.45813787342551426,0.5192739361909464,170.82518948179663,0.012508651241660118,-0.004897266626358032,-1.0042059421539307,0.0013782470487058163,0.005451910197734833,0.0013037249445915222
2024-05-13 17:16:09.354518,0.4604737981216586,0.5250689248148791,170.83170548226482,0.013472684659063816,-0.007996723987162113,-1.0022729635238647,0.002640782855451107,0.004202187526971102,-0.0006931686075404286
2024-05-13 17:16:09.369386,0.46205242559357784,0.5356881614269564,170.8363773316571,0.01154717244207859,-0.009293762966990471,-1.006570816040039,0.0010890276171267033,0.007626736536622047,-0.0012801962438970804
2024-05-13 17:16:09.396395,0.463039227846086,0.5461809861785356,170.84423204920262,0.011807417497038841,-0.0042021567933261395,-1.0102821588516235,0.0018748417496681213,0.007523656357079744,-0.00102772016543895
2024-05-13 17:16:09.414513,0.4637704316132476,0.5603346856035358,170.85384895555399,0.015640733763575554,-0.0031006447970867157,-1.001836895942688,0.0021701864898204803,0.00851552002131939,-0.00032899127108976245
2024-05-13 17:16:09.431825,0.46647812137148165,0.5755331905281365,170.86449039028088,0.015721630305051804,-0.005862674675881863,-1.0050100088119507,0.003292832290753722,0.011085870675742626,-0.0002660921891219914
2024-05-13 17:16:09.456549,0.47047682360455384,0.590061269697018,170.8738477494438,0.015126434154808521,-0.008202768862247467,-1.002406358718872,0.0034365651663392782,0.010987612418830395,-0.0017074189381673932
2024-05-13 17:16:09.474409,0.4748780801118337,0.6016184833812085,170.87905235359133,0.015083903446793556,-0.006824275478720665,-1.0047252178192139,0.0038865345995873213,0.009778126142919064,-0.0025426403153687716
2024-05-13 17:16:09.494094,0.47574615446666,0.6127063883642251,170.8976714492688,0.018541404977440834,-0.0008250789251178503,-1.0098612308502197,0.004084778483957052,0.007263817358762026,-0.00017229033983312547
2024-05-13 17:16:09.516404,0.4742476749957827,0.6203741828420636,170.91462397878877,0.015017978847026825,-0.0030871713533997536,-0.9994781613349915,0.001285257050767541,0.005977874621748924,0.0014761053025722504
2024-05-13 17:16:09.534391,0.47627746847889296,0.628650397764562,170.92469167762536,0.0172670166939497,-0.004522253293544054,-1.004706621170044,0.003233605530112982,0.005646930076181889,0.00022651447216048837
2024-05-13 17:16:09.557542,0.4808347521200253,0.6360682500074604,170.91870843191245,0.014242738485336304,-0.01241571456193924,-1.0012624263763428,0.0023496057838201523,0.005390095990151167,-0.0016116263577714562
2024-05-13 17:16:09.575531,0.48005893867984706,0.6452582695357125,170.92762865896847,0.013321837410330772,-0.0056104292161762714,-1.01060950756073,0.001331997918896377,0.007109017111361027,-0.001999275991693139
2024-05-13 17:16:09.589643,0.4817765711735466,0.6590245158078732,170.93736850872492,0.017581351101398468,-0.005593068432062864,-1.0046045780181885,0.0029114873614162207,0.009622745215892792,-0.0001717184786684811
2024-05-13 17:16:09.617573,0.4817294535404441,0.6749934447265101,170.95280473624913,0.015222183428704739,-0.004139360506087542,-1.0032685995101929,0.0023351225536316633,0.012480709701776505,-0.0010635161306709051
2024-05-13 17:16:09.636516,0.4852847270859944,0.6909029296550268,170.96389696346125,0.01821460761129856,-0.008502261713147163,-1.003782033920288,0.002406561281532049,0.010777810588479042,-0.0007346842321567237
2024-05-13 17:16:09.650210,0.4875996809669527,0.7029273709671284,170.97171069987175,0.01718645915389061,-0.0052528586238622665,-1.0056718587875366,0.0029563254211097956,0.009275534190237522,-0.002074155258014798
2024-05-13 17:16:09.677637,0.4880686161421564,0.7151812105858073,170.9897833804156,0.02413826622068882,-0.0019460031762719154,-1.0080487728118896,0.0027973393443971872,0.0065357498824596405,0.00028013999690301716
2024-05-13 17:16:09.696450,0.48546546029473525,0.7204528359645878,171.00959092900862,0.017136480659246445,-0.0022800115402787924,-1.0001050233840942,0.0006295279017649591,0.0048505812883377075,0.002138457726687193
2024-05-13 17:16:09.712681,0.48736227853244185,0.7282659320448477,171.0236474583205,0.017337368801236153,-0.007736901752650738,-1.005458950996399,0.0017752405256032944,0.005419251509010792,0.00011049424938391894
2024-05-13 17:16:09.738417,0.4898305381437552,0.7332305724369478,171.02318300545696,0.011236453428864479,-0.010115417651832104,-1.0064983367919922,-0.0006185090751387179,0.006938379257917404,-0.0019172679167240858
2024-05-13 17:16:09.753049,0.49009403403532964,0.7471619171879524,171.03330534580692,0.020734205842018127,-0.00848326738923788,-1.0089914798736572,0.00045919674448668957,0.008413119241595268,-0.0019567087292671204
2024-05-13 17:16:09.759026,0.487185440665962,0.7611798132423457,171.0458592335014,0.016522010788321495,-0.0043526142835617065,-1.0001792907714844,-0.0016159509541466832,0.011292874813079834,-0.0010725439060479403
2024-05-13 17:16:09.798515,0.48813969279820685,0.7780774344446929,171.05883659292442,0.020384352654218674,-0.006097165867686272,-1.0033596754074097,0.0020048762671649456,0.01198207214474678,-0.00164547108579427
2024-05-13 17:16:09.807822,0.4895517276874012,0.7881433723731462,171.06908187667943,0.01681847684085369,-0.0028369571082293987,-1.0088164806365967,0.0026474834885448217,0.009695117361843586,-0.0024196396116167307
2024-05-13 17:16:09.834338,0.49135500434999035,0.7996501066905021,171.08618467036115,0.02498052455484867,-0.0057494500651955605,-1.0006582736968994,0.001954572508111596,0.00509722949936986,0.0023669549264013767
2024-05-13 17:16:09.858436,0.4908339889823653,0.8056839918528266,171.10678452089792,0.019918063655495644,-0.0032807046081870794,-1.0052025318145752,0.0011470625177025795,0.004706964362412691,0.0024490258656442165
2024-05-13 17:16:09.869306,0.4920180129471576,0.8108422254192142,171.1154452007655,0.015622231177985668,-0.008706559427082539,-1.0020020008087158,0.000995759735815227,0.004315054509788752,-0.0013062907382845879
2024-05-13 17:16:09.894406,0.4917005692333107,0.8208136612771982,171.12903727721383,0.01897367648780346,-0.005512057803571224,-1.0126110315322876,0.0006307982839643955,0.006969689391553402,-0.0021231728605926037
2024-05-13 17:16:09.918493,0.49439913428570037,0.8332805174206168,171.13290316428404,0.017854124307632446,-0.012308210134506226,-0.9993688464164734,0.00022380670998245478,0.009548520669341087,-0.001013801433146
2024-05-13 17:16:09.931851,0.4903916808727541,0.8507796221567482,171.15359863746917,0.020652446895837784,-0.00533149903640151,-1.0040889978408813,0.00015179271576926112,0.011798673309385777,-0.0024592240806668997
2024-05-13 17:16:09.954492,0.4922905801837234,0.8628349594026736,171.16826988380637,0.017755191773176193,-0.0022904244251549244,-1.0051616430282593,0.0023664541076868773,0.010321916081011295,-0.003573539201170206
2024-05-13 17:16:09.978551,0.4913622080651306,0.8751962677790744,171.1942246026524,0.026720674708485603,-0.0017187530174851418,-1.0045883655548096,0.0022929352708160877,0.005660453345626593,0.0006818389520049095
2024-05-13 17:16:09.994110,0.4941373993022714,0.8812604619058408,171.2095788679066,0.024296997115015984,-0.005320555530488491,-1.0007126331329346,0.002164520090445876,0.004048204515129328,0.0025586243718862534
2024-05-13 17:16:10.014059,0.4956748855566118,0.884437353643543,171.2211218876039,0.01486463937908411,-0.008786160498857498,-1.0059539079666138,0.0018361939582973719,0.0032514003105461597,-0.0030109493527561426
2024-05-13 17:16:10.038509,0.495395488130876,0.8929703943510046,171.2325829450312,0.02028839662671089,-0.00885209534317255,-1.0099729299545288,0.0005288472166284919,0.005895559675991535,-0.0023806956596672535
2024-05-13 17:16:10.046963,0.49399439221652425,0.9030916674839057,171.23883939831094,0.013807559385895729,-0.008404386229813099,-0.9972800612449646,-0.0025163781829178333,0.00954732857644558,-0.0022942256182432175
2024-05-13 17:16:10.074202,0.47594913915105636,0.9267982935976679,171.24893441790422,0.018393201753497124,-0.010348974727094173,-0.9874743819236755,-0.014665056951344013,0.018100446090102196,-0.005105653777718544
2024-05-13 17:16:10.097667,0.4385872306587197,0.9594078578511301,171.2558875504793,0.013589512556791306,-0.00873187929391861,-0.9959350228309631,-0.03158440440893173,0.02848583459854126,-0.005078338086605072
2024-05-13 17:16:10.107260,0.38541292730970106,1.0031967342286108,171.25184407849065,0.01985299587249756,-0.017434420064091682,-0.98671555519104,-0.04680786281824112,0.03489891439676285,-0.0009671428124420345
2024-05-13 17:16:10.119311,0.30852823590679135,1.0580726084546088,171.261420003707,0.020648447796702385,-0.010316194035112858,-0.9931581616401672,-0.06502190977334976,0.044062625616788864,-0.0030374822672456503
2024-05-13 17:16:10.158176,0.2132146269061295,1.1174484034048817,171.285885741314,0.019864801317453384,-0.0035723720211535692,-0.9986305832862854,-0.08063450455665588,0.05198109149932861,-0.0033076892141252756
2024-05-13 17:16:10.181760,0.10391413117671038,1.1941524950011828,171.2897789491409,0.01869565062224865,-0.011170734651386738,-0.9954044818878174,-0.09552532434463501,0.06535927951335907,-0.0027770204469561577
2024-05-13 17:16:10.194510,-0.019971314718085265,1.2800027435046597,171.29767464782142,0.02210944890975952,-0.004758579656481743,-0.9932912588119507,-0.10752663761377335,0.07285573333501816,-0.006646871101111174
2024-05-13 17:16:10.217662,-0.15951109061814064,1.3716649493832886,171.32137540424137,0.01956484280526638,0.006668597925454378,-0.9955745935440063,-0.1170881986618042,0.08020477741956711,-0.00599350780248642
2024-05-13 17:16:10.236422,-0.3119055510079511,1.4711160255149651,171.34549963238985,0.03289910778403282,0.01045722421258688,-0.9959944486618042,-0.12700100243091583,0.08141299337148666,-0.003308074316009879
2024-05-13 17:16:10.247534,-0.4687057768971107,1.5741244562654546,171.35738416154567,0.03511737287044525,0.004856144078075886,-0.9909136891365051,-0.13661475479602814,0.08577318489551544,-0.0016386519419029355
2024-05-13 17:16:10.277789,-0.633428595336662,1.6746686828294504,171.34784921746433,0.03069973923265934,-0.003742063418030739,-1.0005203485488892,-0.14733518660068512,0.0873180478811264,-0.009009021334350109
2024-05-13 17:16:10.296510,-0.8047057273367809,1.7757870721705504,171.306977365471,0.0381368026137352,-0.013994160108268261,-0.9922239780426025,-0.15698176622390747,0.08533542603254318,-0.016147105023264885
2024-05-13 17:16:10.306852,-0.9918393035776432,1.8712882712495498,171.29550264766536,0.03856420889496803,0.004554073326289654,-0.9862918257713318,-0.16444005072116852,0.0821852833032608,-0.019461913034319878
2024-05-13 17:16:10.338480,-1.197565668595485,1.9473093439288494,171.3268532159557,0.042403627187013626,0.027091119438409805,-0.9888278841972351,-0.1726895123720169,0.06513296812772751,-0.02096853405237198
2024-05-13 17:16:10.354845,-1.4056717142088417,2.0041072760759713,171.37032053983367,0.05506401136517525,0.03644255921244621,-0.9855223894119263,-0.17514373362064362,0.045876678079366684,-0.015641989186406136
2024-05-13 17:16:10.373938,-1.611966692475087,2.0437082859968823,171.4061926933546,0.055394839495420456,0.03428250551223755,-0.991725742816925,-0.1773582547903061,0.03052677772939205,-0.011100132018327713
2024-05-13 17:16:10.401124,-1.8184509950473888,2.0618573792820754,171.42238024168753,0.04665207490324974,0.026739316061139107,-0.9939461946487427,-0.18068507313728333,0.014494219794869423,-0.015240876004099846
2024-05-13 17:16:10.406563,-2.0254228023717,2.0657443972500475,171.43427843122168,0.04668504372239113,0.026733532547950745,-0.9930098056793213,-0.181366965174675,0.0022671660408377647,-0.015109239146113396
2024-05-13 17:16:10.434555,-2.242215994835667,2.059193818949182,171.47576500024033,0.04207587242126465,0.04157871752977371,-0.9970760345458984,-0.1859460175037384,-0.006120274309068918,-0.013710258528590202
2024-05-13 17:16:10.457540,-2.461843502361777,2.040577711479489,171.51395941807905,0.04253167286515236,0.04577846825122833,-0.9926931262016296,-0.18770235776901245,-0.015566536225378513,-0.013482660055160522
2024-05-13 17:16:10.475553,-2.680722250400125,2.0162029007658293,171.54981791122162,0.046828389167785645,0.047848403453826904,-0.9896668791770935,-0.1895855814218521,-0.02311413735151291,-0.012065726332366467
2024-05-13 17:16:10.493542,-2.906862556743254,1.981870101129114,171.58157829086218,0.04632493481040001,0.04610944911837578,-0.994941771030426,-0.19760072231292725,-0.03259486332535744,-0.01210800837725401
2024-05-13 17:16:10.517399,-3.142083599587915,1.9335119349186005,171.62173980318184,0.0391429178416729,0.0531437061727047,-0.9913293123245239,-0.20368100702762604,-0.04079960659146309,-0.013086494989693165
2024-05-13 17:16:10.536506,-3.382213627455111,1.883065224925944,171.6721602596349,0.04115540534257889,0.06399806588888168,-0.9923941493034363,-0.20635075867176056,-0.04553484544157982,-0.011883343569934368
2024-05-13 17:16:10.546148,-3.6259194727962205,1.8235004258347323,171.71831867804585,0.03534388169646263,0.06349143385887146,-0.9924201965332031,-0.21015439927577972,-0.05250837653875351,-0.012274966575205326
2024-05-13 17:16:10.577800,-3.8710434361637533,1.7578131092045446,171.76419022851164,0.040019549429416656,0.06658104062080383,-0.9924498796463013,-0.21285659074783325,-0.05864253640174866,-0.010509392246603966
2024-05-13 17:16:10.595787,-4.11916969455833,1.6899651049191056,171.81518442085496,0.038880135864019394,0.0707767978310585,-0.9949782490730286,-0.2162393033504486,-0.06140775606036186,-0.010266559198498726
2024-05-13 17:16:10.605898,-4.377007201292196,1.617310888613799,171.8582692541394,0.037509240210056305,0.07378944754600525,-0.9935528039932251,-0.22328074276447296,-0.06452169269323349,-0.012294226326048374
2024-05-13 17:16:10.637482,-4.635937111406441,1.5393804578963632,171.9159570318693,0.03352513164281845,0.0819624811410904,-0.9949251413345337,-0.22435888648033142,-0.06879793852567673,-0.009345813654363155
2024-05-13 17:16:10.656094,-4.897115434418089,1.454973407020169,171.973112054844,0.030251499265432358,0.08466395735740662,-0.9949368834495544,-0.22514283657073975,-0.07424043864011765,-0.010165231302380562
2024-05-13 17:16:10.674112,-5.156598589855105,1.3659825521589555,172.0301441344136,0.031740665435791016,0.08961048722267151,-0.9903706908226013,-0.22579437494277954,-0.077170230448246,-0.009997937828302383
2024-05-13 17:16:10.687270,-5.410744379342579,1.2719220961080058,172.10050874324307,0.017617523670196533,0.09068740159273148,-0.9894281625747681,-0.22240552306175232,-0.07971099764108658,-0.003360994393005967
2024-05-13 17:16:10.715682,-5.65736756923293,1.1773856612492708,172.15965818145537,0.014280510134994984,0.0876268595457077,-0.9891793131828308,-0.21940553188323975,-0.07971452176570892,0.00017231336096301675
2024-05-13 17:16:10.731564,-5.897050433152901,1.0850783226591931,172.23551426237754,0.0048833563923835754,0.09339164197444916,-0.9912814497947693,-0.2123272567987442,-0.07597222179174423,0.007673126645386219
2024-05-13 17:16:10.744297,-6.134373466714634,0.9987937168131855,172.33281713729355,0.010998774319887161,0.10292170941829681,-0.9870262145996094,-0.2075916826725006,-0.07504232972860336,0.015379115007817745
2024-05-13 17:16:10.776139,-6.361975433540145,0.9215167431002497,172.4434798622261,0.017580721527338028,0.1143069937825203,-0.9820927977561951,-0.19695420563220978,-0.07075855135917664,0.015205362811684608
2024-05-13 17:16:10.791616,-6.576807081051849,0.854649618012648,172.56407368221184,0.019870730116963387,0.12557049095630646,-0.9845080971717834,-0.18344029784202576,-0.06314550340175629,0.014610087499022484
2024-05-13 17:16:10.818506,-6.7801947466091965,0.797769670234633,172.6722502182865,0.028468916192650795,0.124767005443573,-0.9823980331420898,-0.17668357491493225,-0.05697651952505112,0.012076680548489094
2024-05-13 17:16:10.835552,-6.968637531375733,0.7377799053109995,172.78455218861984,0.015388701111078262,0.1251796931028366,-0.9853410124778748,-0.1643734723329544,-0.05547425523400307,0.01338327955454588
2024-05-13 17:16:10.841008,-7.1460764545025555,0.6822383544451895,172.90125280077868,0.015909474343061447,0.13138078153133392,-0.9832601547241211,-0.15297995507717133,-0.051373932510614395,0.012893681414425373
2024-05-13 17:16:10.877629,-7.310005690337915,0.6361540008980557,173.01101394074078,0.012221934273838997,0.13476599752902985,-0.9848333597183228,-0.14193348586559296,-0.043588247150182724,0.010459384880959988
2024-05-13 17:16:10.896502,-7.462563088092028,0.5992373620426658,173.12547425085185,0.022257879376411438,0.14036335051059723,-0.9860351085662842,-0.13121700286865234,-0.03935619443655014,0.009849198162555695
2024-05-13 17:16:10.914504,-7.606637390896984,0.5612723958713846,173.2361369757844,0.019034771248698235,0.13634958863258362,-0.984664797782898,-0.12477925419807434,-0.03874771669507027,0.009725471958518028
2024-05-13 17:16:10.931615,-7.739411145720155,0.5240315364738305,173.33099464297754,0.0182128194719553,0.13169464468955994,-0.987503170967102,-0.11853345483541489,-0.036649882793426514,0.010626357980072498
2024-05-13 17:16:10.956502,-7.868720287086836,0.4926278207739928,173.4455778964937,0.009552652947604656,0.14310215413570404,-0.9845142364501953,-0.1104167178273201,-0.030384426936507225,0.009782016277313232
2024-05-13 17:16:10.972739,-7.987257366358761,0.46330080274695634,173.5515141305206,0.008554493077099323,0.14724251627922058,-0.9866920113563538,-0.10175515711307526,-0.02754833549261093,0.006949830800294876
2024-05-13 17:16:10.997550,-8.09983937444808,0.4363537321196991,173.66966274278346,0.012369084171950817,0.15323954820632935,-0.9843325018882751,-0.09439002722501755,-0.026977989822626114,0.009658124297857285
2024-05-13 17:16:11.016377,-8.204412131961915,0.4133406903718105,173.76655580634926,0.014450916089117527,0.14428503811359406,-0.9896279573440552,-0.09132310003042221,-0.02509927749633789,0.009535172954201698
2024-05-13 17:16:11.028074,-8.30075536529953,0.39051193032938003,173.84466584969752,0.016574431210756302,0.14063121378421783,-0.9860494136810303,-0.08700063824653625,-0.02395457960665226,0.0070161656476557255
2024-05-13 17:16:11.057627,-8.395879409870298,0.37219627114188836,173.94711868724772,0.013264196924865246,0.15221528708934784,-0.9843323230743408,-0.07986558228731155,-0.01914222538471222,0.00661698542535305
2024-05-13 17:16:11.081529,-8.486209515417363,0.35149306063308056,174.0526041287894,0.00798841193318367,0.15629619359970093,-0.986767053604126,-0.07520507276058197,-0.018915431573987007,0.006131238769739866
2024-05-13 17:16:11.087839,-8.569302181765153,0.3345122498610768,174.1547564380161,0.00771733233705163,0.1566307246685028,-0.9835858345031738,-0.06920446455478668,-0.015984414145350456,0.004255588166415691
2024-05-13 17:16:11.117551,-8.640111606664322,0.32304380195567006,174.23665040616456,0.009269777685403824,0.14945143461227417,-0.9908596277236938,-0.06424921005964279,-0.013235926628112793,0.0064261313527822495
2024-05-13 17:16:11.136381,-8.711452932545104,0.3110610621501025,174.32644007299353,0.012518092058598995,0.1531154215335846,-0.986362874507904,-0.061006300151348114,-0.013081124983727932,0.005180714651942253
2024-05-13 17:16:11.150239,-8.779877767650293,0.3024934169295413,174.417855324845,0.014799585565924644,0.15659944713115692,-0.9874818921089172,-0.05839211121201515,-0.011661922559142113,0.005722349509596825
2024-05-13 17:16:11.178509,-8.847198673430876,0.2909881767160664,174.51582755829966,0.007305138278752565,0.15880820155143738,-0.9870039224624634,-0.05634629726409912,-0.011386998929083347,0.006699587684124708
2024-05-13 17:16:11.191198,-8.908299838198518,0.28114216554280214,174.6062865836673,0.006516852881759405,0.15899230539798737,-0.9869202375411987,-0.05280410125851631,-0.01014523021876812,0.004573024809360504
2024-05-13 17:16:11.214064,-8.968087045324578,0.2741280948737279,174.70339821328653,0.006913892459124327,0.16064393520355225,-0.9867993593215942,-0.050768714398145676,-0.008373848162591457,0.003759975777938962
2024-05-13 17:16:11.238426,-9.023466219115042,0.2700203497377735,174.79826954085803,0.013157572597265244,0.16042320430278778,-0.9880073666572571,-0.048278167843818665,-0.007591828238219023,0.0030869098845869303
2024-05-13 17:16:11.247421,-9.076050991761324,0.2655599960859172,174.8974712083633,0.014738872647285461,0.1613159030675888,-0.9870372414588928,-0.043750353157520294,-0.008303133770823479,0.0026531179901212454
2024-05-13 17:16:11.274385,-9.123611306499415,0.2595650643462029,174.9949789889544,0.011965632438659668,0.16065599024295807,-0.9856444597244263,-0.04120544716715813,-0.008129998110234737,0.00297183427028358
2024-05-13 17:16:11.304467,-9.171884522232126,0.25191882765293233,175.09550571315864,0.005148437339812517,0.16324551403522491,-0.9874386191368103,-0.04052594676613808,-0.006320425774902105,0.0018923089373856783
2024-05-13 17:16:11.316252,-9.215660058396384,0.24681376817645026,175.1943931919621,0.0054786913096904755,0.16452734172344208,-0.9853754043579102,-0.03674526885151863,-0.005550852976739407,0.0024468584451824427
2024-05-13 17:16:11.334375,-9.25440686778422,0.2427205371924821,175.29569855773173,0.007827740162611008,0.16492615640163422,-0.9873126745223999,-0.03386753797531128,-0.005132528021931648,0.0027155419811606407
2024-05-13 17:16:11.357712,-9.29155370535898,0.23935349405550382,175.3927282250809,0.011424686759710312,0.1629057377576828,-0.9866858124732971,-0.03196544945240021,-0.006633695214986801,0.004794865846633911
2024-05-13 17:16:11.375957,-9.326175934261776,0.23656280149059827,175.48851479800118,0.01089487038552761,0.1629147231578827,-0.9881499409675598,-0.03024883009493351,-0.005990705918520689,0.0053438120521605015
2024-05-13 17:16:11.389684,-9.35785776672688,0.2300869017033535,175.5844652954615,0.0072743650525808334,0.1643410176038742,-0.9867910742759705,-0.027551567181944847,-0.007492165546864271,0.0032693869434297085
2024-05-13 17:16:11.418169,-9.390534245489867,0.22474900214528273,175.6854154913943,0.005379841197282076,0.17032413184642792,-0.9852602481842041,-0.025700833648443222,-0.005945777054876089,0.003487230744212866
2024-05-13 17:16:11.435684,-9.418512407877532,0.2213520502502592,175.77890712075344,0.0063039991073310375,0.16811375319957733,-0.9867083430290222,-0.0231038648635149,-0.0042211017571389675,0.0037849959917366505
2024-05-13 17:16:11.450685,-9.443702999310185,0.2207951096884255,175.8636697683533,0.011083351448178291,0.16562096774578094,-0.9851876497268677,-0.022166769951581955,-0.003918004687875509,0.003896037582308054
2024-05-13 17:16:11.477583,-9.467791368965527,0.22154687072416324,175.94365128353414,0.013161999173462391,0.16500261425971985,-0.9878436326980591,-0.02048374153673649,-0.003164808265864849,0.002955823205411434
2024-05-13 17:16:11.495024,-9.492361266957356,0.22049057930097812,176.03416495041515,0.009984035976231098,0.17068570852279663,-0.9846543669700623,-0.019298005849123,-0.0035414837766438723,0.0017887407448142767
2024-05-13 17:16:11.514455,-9.514295565703206,0.21808316440217343,176.12215144730325,0.007053053937852383,0.17033131420612335,-0.9864097833633423,-0.01730954833328724,-0.0036702898796647787,0.0021246967371553183
2024-05-13 17:16:11.537602,-9.532572298148514,0.21581965038340178,176.20330775502134,0.005198181141167879,0.16918106377124786,-0.9864725470542908,-0.014792216941714287,-0.002677887910977006,0.0026319881435483694
2024-05-13 17:16:11.541067,-9.549249912554393,0.21494745390268966,176.27667764708562,0.007169452030211687,0.16716134548187256,-0.9868642091751099,-0.013991966843605042,-0.002431766130030155,0.002484334399923682
2024-05-13 17:16:11.574498,-9.563025550336661,0.2148610226612199,176.36012889836485,0.011303631588816643,0.16887693107128143,-0.9868841171264648,-0.011535614728927612,-0.004334772936999798,0.0040412843227386475
2024-05-13 17:16:11.588741,-9.575426612548465,0.21632222957635305,176.4464624894738,0.011311257258057594,0.1712546944618225,-0.9855160117149353,-0.00978789385408163,-0.0027241925708949566,0.003346807323396206
2024-05-13 17:16:11.616446,-9.586225995399902,0.21451192262139557,176.53002302377973,0.008732033893465996,0.1701313704252243,-0.9874204993247986,-0.008443997241556644,-0.004520058631896973,0.0032301514875143766
2024-05-13 17:16:11.633927,-9.594524675241468,0.2100179116115784,176.6123951051701,0.0037329758051782846,0.16978734731674194,-0.9857633709907532,-0.007208436727523804,-0.003957888577133417,0.001865270547568798
2024-05-13 17:16:11.650500,-9.600689774741051,0.20952567108387468,176.69329186569973,0.006992466747760773,0.16906890273094177,-0.9864048957824707,-0.005137158092111349,-0.002972882241010666,0.003728152485564351
2024-05-13 17:16:11.676399,-9.605830345865131,0.20935415596247067,176.7763606263854,0.009782856330275536,0.17095166444778442,-0.9869137406349182,-0.0027683135122060776,-0.0029394531156867743,0.0028636432252824306
2024-05-13 17:16:11.694507,-9.60783500638653,0.21146412412704926,176.85564546227093,0.011508575640618801,0.16986240446567535,-0.98566734790802,-0.0006545206415466964,-0.002008599927648902,0.0030628612730652094
2024-05-13 17:16:11.736147,-9.610104336738267,0.21122856264196316,177.013696039665,0.006764604710042477,0.16963598132133484,-0.9855822324752808,-0.00019621355750132352,-0.00185210641939193,0.0024650846607983112
2024-05-13 17:16:11.753902,-9.61142000192714,0.2108440443360326,177.09311747933393,0.005422558169811964,0.1708425134420395,-0.9860989451408386,-0.00022835790878161788,-0.0017050800379365683,0.0015016081742942333
2024-05-13 17:16:11.777699,-9.611787124595029,0.21252468441846564,177.17132314533058,0.0086698392406106,0.1705383062362671,-0.9863627552986145,0.0007791902171447873,-0.001083373324945569,0.002142055192962289
2024-05-13 17:16:11.796375,-9.611448176457467,0.21357837450007233,177.2450891883667,0.010260045528411865,0.1691402941942215,-0.9863986968994141,0.0010046804090961814,-0.0017029846785590053,0.002473147353157401
2024-05-13 17:16:11.808725,-9.611329501920638,0.21400410072464776,177.3174072312988,0.009993812069296837,0.16771665215492249,-0.9860959053039551,0.0009274807525798678,-0.0014557536924257874,0.0023999519180506468
2024-05-13 17:16:11.838313,-9.611009336803294,0.21276007248077985,177.39622761432076,0.00816341582685709,0.16948345303535461,-0.9868001341819763,0.0014418093487620354,-0.0025673522613942623,0.0012997591402381659
2024-05-13 17:16:11.856369,-9.611334624562515,0.21222218174342813,177.47512995961273,0.005373093765228987,0.17081515491008759,-0.9864062070846558,0.0010845798533409834,-0.0017007444985210896,0.0024322273675352335
2024-05-13 17:16:11.869352,-9.610439016007598,0.21179442780644284,177.55083577637316,0.007757377345114946,0.16981782019138336,-0.9870579242706299,0.0012554037384688854,-0.002316146856173873,0.0018298482755199075
2024-05-13 17:16:11.897603,-9.609610855570734,0.2127515080638909,177.6250799326512,0.009579546749591827,0.1684408336877823,-0.9858474731445312,0.0014515880029648542,-0.002224631141871214,0.002010931493714452
2024-05-13 17:16:11.916032,-9.608662313049749,0.2133713210506431,177.69690620196306,0.010467227548360825,0.16839469969272614,-0.9866704344749451,0.00040190614527091384,-0.002455906243994832,0.0012828218750655651
2024-05-13 17:16:11.931573,-9.608105652632393,0.21327709912465131,177.77143722618624,0.009158525615930557,0.1693243831396103,-0.986178457736969,0.000980390701442957,-0.0019351504743099213,0.0009540917235426605
2024-05-13 17:16:11.957886,-9.60767108184645,0.21296289708261748,177.84766213732357,0.006843474693596363,0.17006459832191467,-0.9867542386054993,0.0015655795577913523,-0.0018708580173552036,0.0020066658034920692
2024-05-13 17:16:11.981524,-9.607238218607801,0.21234956743949152,177.9232313503006,0.006792599335312843,0.16951699554920197,-0.9855810403823853,0.0003099080640822649,-0.0014839471550658345,0.0023820220958441496
2024-05-13 17:16:11.994142,-9.607776949778586,0.21401214487322104,177.9977350537671,0.007993023842573166,0.16912558674812317,-0.9866681098937988,0.00013888534158468246,-0.0012437336845323443,0.0024371277540922165
2024-05-13 17:16:12.017431,-9.607973317717223,0.21535621137604583,178.07114592696638,0.01018652692437172,0.16930975019931793,-0.9860000610351562,0.0003192464937455952,-0.001546924002468586,0.0018965768394991755
2024-05-13 17:16:12.036373,-9.607140034638482,0.2162481513723275,178.14484366811084,0.008934089913964272,0.16979770362377167,-0.9864329695701599,0.0015931560192257166,-0.0012107152724638581,0.0010423283092677593
2024-05-13 17:16:12.045712,-9.605828638317838,0.2158887126672556,178.21447061650994,0.007951419800519943,0.17143751680850983,-0.9854269027709961,0.002220350317656994,-0.001481790211983025,-0.0009373394423164427
2024-05-13 17:16:12.078300,-9.603164010767888,0.21526106897534167,178.29068186726894,0.005840957164764404,0.17209312319755554,-0.9856107234954834,0.0034591311123222113,-0.0007995296036824584,-0.0003657694032881409
2024-05-13 17:16:12.095580,-9.596638618789587,0.21610458399762503,178.36355998571298,0.006656033452600241,0.17079460620880127,-0.9853770136833191,0.006304473150521517,-0.0006830378551967442,-0.00011511983757372946
2024-05-13 17:16:12.104959,-9.587220641697785,0.21917943644438692,178.43474421724287,0.0077645485289394855,0.16976505517959595,-0.985268771648407,0.009443998336791992,0.0005873309564776719,-0.00039123406168073416
2024-05-13 17:16:12.137491,-9.572902857650146,0.22315384614918063,178.50269093910615,0.008413577452301979,0.17085500061511993,-0.9863601326942444,0.013073540292680264,0.002097047632560134,-0.0027707666158676147
2024-05-13 17:16:12.150972,-9.554223144043808,0.22712163910821592,178.5728779630172,0.009736519306898117,0.17111751437187195,-0.9854958057403564,0.017462726682424545,0.0018067903583869338,-0.0015130826504901052
2024-05-13 17:16:12.174288,-9.531539232036549,0.23192499632245384,178.6410705716906,0.009120914153754711,0.17004399001598358,-0.9878408312797546,0.020662931725382805,0.00178417912684381,-0.0009189333068206906
2024-05-13 17:16:12.203457,-9.503977711188256,0.23394222332470835,178.7062578971292,0.008479706011712551,0.1683325171470642,-0.9863274097442627,0.02497057430446148,0.0010560305090621114,-0.000550736440345645
2024-05-13 17:16:12.212758,-9.471866430579086,0.23833360807420342,178.76957375073522,0.008937831036746502,0.16831368207931519,-0.9871811866760254,0.0283020231872797,0.0019058235920965672,-0.0018631285056471825
2024-05-13 17:16:12.234279,-9.43852486214567,0.24124505624920067,178.83593586871106,0.009281326085329056,0.16773706674575806,-0.9876458048820496,0.029469816014170647,0.0015344128478318453,-0.0014476602664217353
2024-05-13 17:16:12.258496,-9.403188878474609,0.24495841132143975,178.90520764727333,0.011071424931287766,0.16789419949054718,-0.9871802926063538,0.031749289482831955,0.0008457198273390532,-0.0006583583890460432
2024-05-13 17:16:12.275249,-9.36395029546653,0.2461004136145806,178.97034033119857,0.007567659020423889,0.16558343172073364,-0.9865396618843079,0.034607429057359695,0.0020279951859265566,-0.00030421698465943336
2024-05-13 17:16:12.294263,-9.321755094321485,0.2499324699040751,179.02274154251091,0.008219446055591106,0.1630268096923828,-0.9876879453659058,0.03598342463374138,0.0017975450027734041,0.0002526793396100402
2024-05-13 17:16:12.318395,-9.281022407432468,0.250535847748137,179.0857432074151,0.005362446419894695,0.16392718255519867,-0.9881003499031067,0.036229148507118225,0.00030249005067162216,-0.00044105987763032317
2024-05-13 17:16:12.327239,-9.23625137119668,0.25356063437467413,179.1473515137286,0.007631131913512945,0.16505016386508942,-0.9872638583183289,0.03912389278411865,0.0010961510706692934,0.0006689743604511023
2024-05-13 17:16:12.339125,-9.190974047188666,0.2553768777245157,179.21160993344012,0.008253609761595726,0.16506195068359375,-0.9884892702102661,0.041721221059560776,0.0010962694650515914,0.001234364346601069
2024-05-13 17:16:12.377922,-9.143992590982734,0.26003330583031903,179.26972118289856,0.011059344746172428,0.16351129114627838,-0.987485408782959,0.042878761887550354,0.0018653518054634333,-0.0009808745235204697
2024-05-13 17:16:12.386285,-9.092769587302222,0.26173159501484566,179.32769582857364,0.008881154470145702,0.16049587726593018,-0.9887161254882812,0.044412530958652496,0.0005278290482237935,-0.0006701825768686831
2024-05-13 17:16:12.400156,-9.038210889985807,0.26400177914022865,179.38431809679304,0.01022322103381157,0.1598520427942276,-0.9882948398590088,0.0471656508743763,-0.0011695286957547069,-0.00010013951396103948
2024-05-13 17:16:12.438352,-8.985204353158277,0.26412963174375487,179.45022942228366,0.009861632250249386,0.16201870143413544,-0.9882570505142212,0.0487203374505043,-0.0029054132755845785,0.002156471600756049
2024-05-13 17:16:12.447624,-8.930014717117281,0.2671980408675302,179.50738444525834,0.011321441270411015,0.16087943315505981,-0.9866328239440918,0.04974929243326187,2.8758153348462656e-05,0.0003900196170434356
2024-05-13 17:16:12.474406,-8.873349760215563,0.26855844913155275,179.56116535478301,0.011339501477777958,0.15749284625053406,-0.9898071885108948,0.05026246979832649,-0.0008356824982911348,0.0008353578741662204
2024-05-13 17:16:12.494516,-8.816392812726827,0.26914317735752935,179.61377147177046,0.009816535748541355,0.15542186796665192,-0.9873573184013367,0.050474509596824646,-0.0013713855296373367,0.0014383988454937935
2024-05-13 17:16:12.516275,-8.757614766050635,0.2693766044084998,179.66820807945547,0.008834661915898323,0.15391068160533905,-0.9881902933120728,0.051644984632730484,-0.001396565930917859,0.0013388458173722029
2024-05-13 17:16:12.534202,-8.696980615467494,0.2702429712160336,179.73088189527948,0.008535330183804035,0.15831823647022247,-0.989213228225708,0.054562147706747055,-0.0012316991342231631,0.0031419156584888697
2024-05-13 17:16:12.556655,-8.632508752344451,0.2710247077108827,179.79141103170414,0.011328587308526039,0.15640385448932648,-0.9889118075370789,0.05723147094249725,-0.0030582724139094353,0.001325882039964199
2024-05-13 17:16:12.576265,-8.565422634316585,0.27058885626447127,179.8480196395452,0.009666780941188335,0.1537555605173111,-0.9892644286155701,0.05953944846987724,-0.0021259747445583344,0.0001351961400359869
2024-05-13 17:16:12.593653,-8.49510242171672,0.2705010509810396,179.89574900146525,0.009746317751705647,0.14842157065868378,-0.9902371168136597,0.060487426817417145,-0.0016483187209814787,0.0014219200238585472
2024-05-13 17:16:12.609368,-8.427917265945888,0.26882981574892856,179.95065006201384,0.007040930911898613,0.1501692533493042,-0.9886364340782166,0.059274446219205856,-0.001958867534995079,0.0012608750257641077
2024-05-13 17:16:12.636298,-8.362385015954201,0.2672197854150832,-179.99537414069906,0.008967820554971695,0.15087853372097015,-0.9890120029449463,0.05874330550432205,-0.0015253289602696896,0.0005994183011353016
2024-05-13 17:16:12.654149,-8.294808831853388,0.26639271887570337,-179.9416751934444,0.006402834318578243,0.14892898499965668,-0.9902033805847168,0.05941342934966087,-0.0025694333016872406,0.0026363355573266745
2024-05-13 17:16:12.670061,-8.22407880790332,0.26537277953355004,-179.89169186909828,0.009563961997628212,0.14651958644390106,-0.9899952411651611,0.06195294111967087,-0.0029438314959406853,0.0024195786099880934
2024-05-13 17:16:12.681543,-8.150077123340818,0.2640312876918772,-179.85042386613304,0.007206251844763756,0.14410367608070374,-0.9909980893135071,0.06459249556064606,-0.002154701389372349,0.0005089197074994445
2024-05-13 17:16:12.713540,-8.074396919789784,0.26312775505030506,-179.8027901268614,0.011366117745637894,0.14601653814315796,-0.990022599697113,0.06635091453790665,-0.002166423946619034,0.0008244648925028741
2024-05-13 17:16:12.730644,-8.000027258785746,0.26026198376538223,-179.7561399348302,0.006094499956816435,0.1454807072877884,-0.9893130660057068,0.06667371094226837,-0.0031503166537731886,9.463296737521887e-05
2024-05-13 17:16:12.744309,-7.920213083239562,0.2586333571743044,-179.7170302716427,0.008359880186617374,0.14065556228160858,-0.9902915954589844,0.06901335716247559,-0.002910369774326682,0.0011620258446782827
2024-05-13 17:16:12.773587,-7.841984365354468,0.2593139748529256,-179.67950521234266,0.010977914556860924,0.13726913928985596,-0.9909554123878479,0.06844313442707062,-0.002024086657911539,0.0026813666336238384
2024-05-13 17:16:12.790659,-7.765032039070519,0.2594844627779115,-179.64214407758269,0.012279258109629154,0.13964515924453735,-0.9903489947319031,0.06920535862445831,-0.002787455217912793,0.001124463975429535
2024-05-13 17:16:12.816597,-7.684998443697248,0.26115916646546045,-179.59770686684257,0.011199509724974632,0.1401611566543579,-0.9906041622161865,0.07101765275001526,-0.0015737747307866812,0.0015974113484844565
2024-05-13 17:16:12.833545,-7.601192876354838,0.25888340613095034,-179.5528735051306,0.007358602713793516,0.13750840723514557,-0.9914478659629822,0.07426305115222931,-0.002291567623615265,0.0007377143483608961
2024-05-13 17:16:12.857903,-7.514368365399282,0.2564057550095282,-179.5165915402595,0.004217156209051609,0.131051167845726,-0.9915972948074341,0.07481977343559265,-0.001484936336055398,0.0018297387287020683
2024-05-13 17:16:12.882518,-7.429348731931902,0.252658062228454,-179.47522791464593,0.004152525216341019,0.13192960619926453,-0.9923467636108398,0.07505408674478531,-0.0028366432525217533,0.0019293520599603653
2024-05-13 17:16:12.889053,-7.346179225955949,0.25400835861085375,-179.43122783601268,0.010878537781536579,0.13238310813903809,-0.991920530796051,0.07405675202608109,-0.0014543638098984957,0.002264970215037465
2024-05-13 17:16:12.918073,-7.265890352262449,0.25555334206502534,-179.38317062501247,0.011889360845088959,0.13439643383026123,-0.9922346472740173,0.07230337709188461,-0.0011131453793495893,0.0007100204238668084
2024-05-13 17:16:12.936271,-7.177585397804293,0.2544768402188079,-179.34936118862092,0.011805566027760506,0.1265130192041397,-0.9924039840698242,0.07545297592878342,-0.0035825681407004595,0.0006952990079298615
2024-05-13 17:16:12.949195,-7.091300044906346,0.2499597106194758,-179.31777839389878,0.0052325366996228695,0.12716789543628693,-0.9930322766304016,0.0769241452217102,-0.0034241543617099524,0.0009779005777090788
2024-05-13 17:16:12.977539,-7.000201543077654,0.24734374816736093,-179.29216518451122,0.0017650771187618375,0.1239965558052063,-0.9924917221069336,0.07848437875509262,-0.0008732302812859416,-9.440671419724822e-05
2024-05-13 17:16:12.994795,-6.913822701965442,0.2468074449153827,-179.25895680476663,0.006338445004075766,0.12589724361896515,-0.9923837184906006,0.07788123935461044,-0.0016192981274798512,0.0010702071012929082
2024-05-13 17:16:13.014318,-6.822057402919028,0.2521393146970768,-179.22674563264084,0.013424438424408436,0.12405066192150116,-0.9915673732757568,0.08119034022092819,0.00030692637665197253,0.003109825076535344
2024-05-13 17:16:13.038556,-6.72930556842437,0.2568888041303215,-179.200517706228,0.016790151596069336,0.12334364652633667,-0.9957568049430847,0.08306674659252167,-0.00015851488569751382,0.00018627982353791595
2024-05-13 17:16:13.047161,-6.6330831440577,0.26037022625547107,-179.17934411980096,0.01740330085158348,0.11851268261671066,-0.9923208355903625,0.08372300863265991,-0.001652716426178813,-0.00019799656001850963
2024-05-13 17:16:13.074447,-6.535283799766403,0.25604079345618214,-179.15087589134035,0.004098701290786266,0.11612637341022491,-0.9955358505249023,0.0862748846411705,-0.0031892836559563875,0.0011926231672987342
2024-05-13 17:16:13.097654,-6.437390540374018,0.25159642137976657,-179.12167000244938,0.0029825593810528517,0.11564791202545166,-0.992507815361023,0.08646843582391739,-0.0031072990968823433,0.00030637625604867935
2024-05-13 17:16:13.108713,-6.342911094906171,0.25145992431807207,-179.08910366048676,0.0040287175215780735,0.1138940155506134,-0.9936608672142029,0.08428346365690231,-0.0010886520612984896,0.0008024466806091368
2024-05-13 17:16:13.119224,-6.248592585770641,0.2527301260602829,-179.05573135620207,0.010865362361073494,0.11274608224630356,-0.9934396147727966,0.08225356787443161,-0.0018906011246144772,0.0036149625666439533
2024-05-13 17:16:13.158206,-6.152974633145518,0.2544382603221679,-179.02204486321557,0.01576934941112995,0.11280307173728943,-0.9957935810089111,0.08573257923126221,-0.003937298897653818,0.001368184806779027
2024-05-13 17:16:13.167061,-6.049881465360637,0.2511289269475909,-178.99984674841303,0.009745202958583832,0.11142438650131226,-0.9932166337966919,0.0903041884303093,-0.004566272255033255,-0.0003580136690288782
2024-05-13 17:16:13.194419,-5.945304012091749,0.24796839031129975,-178.9787414638777,0.007188740186393261,0.10904394090175629,-0.9956516027450562,0.09270604699850082,-0.003149649128317833,4.8688947572372854e-05
2024-05-13 17:16:13.213777,-5.838871308689556,0.2432737024739738,-178.9655728591579,0.002636031713336706,0.10469858348369598,-0.99420565366745,0.09286610782146454,-0.0029266714118421078,0.00031573587330058217
2024-05-13 17:16:13.236282,-5.733161751565738,0.245091359886417,-178.95333316016524,0.009800177067518234,0.10234582424163818,-0.9957108497619629,0.09192027896642685,-0.0014733466086909175,0.0019741475116461515
2024-05-13 17:16:13.254534,-5.627803522297352,0.2476292287303263,-178.93688606464386,0.015744850039482117,0.10115450620651245,-0.9971594214439392,0.0919298306107521,-0.002922073472291231,0.0028113219887018204
2024-05-13 17:16:13.275234,-5.524473005438814,0.2478577199024044,-178.9199745162589,0.016286393627524376,0.09939002990722656,-0.9963046312332153,0.09160546213388443,-0.004403618164360523,0.0018660055939108133
2024-05-13 17:16:13.296513,-5.421442590016934,0.24087249077431763,-178.8994019864788,0.005122900474816561,0.10065409541130066,-0.993682324886322,0.09190096706151962,-0.005105506628751755,-0.000957322190515697
2024-05-13 17:16:13.314409,-5.314029327582021,0.23700084073197822,-178.87986764545258,-0.0007710400386713445,0.0965869277715683,-0.9958608150482178,0.0939151793718338,-0.002053980017080903,0.0005879957461729646
2024-05-13 17:16:13.337620,-5.206241685403227,0.23626366054929288,-178.8571094551381,0.0034741517156362534,0.0947972908616066,-0.9956339597702026,0.09519492089748383,-0.00037072983104735613,0.0022106366232037544
2024-05-13 17:16:13.356392,-5.09791701960094,0.23469930710552195,-178.84262945409768,0.005767903756350279,0.09107642620801926,-0.9967489242553711,0.094706229865551,-0.0022368840873241425,0.002383674029260874
2024-05-13 17:16:13.369283,-4.993113743202619,0.23561807427059445,-178.8274117926269,0.01648527756333351,0.0921996533870697,-0.9968809485435486,0.09319626539945602,-0.0027509969659149647,0.0013442263007164001
2024-05-13 17:16:13.398400,-4.883122938129672,0.23630576226222366,-178.8206908864836,0.00756651209667325,0.09232445806264877,-0.9960466623306274,0.0976422131061554,-0.0009880387224256992,-0.0020580170676112175
2024-05-13 17:16:13.408506,-4.771199616408435,0.2350329458382212,-178.8182729995174,0.008146929554641247,0.0866614431142807,-0.9976500272750854,0.09817521274089813,-0.002206862438470125,-0.0014885381096974015
2024-05-13 17:16:13.433687,-4.660346499952774,0.23364001413436172,-178.81886039578603,0.0035812226124107838,0.0815144032239914,-0.9963536262512207,0.09546591341495514,-0.000883632805198431,0.002283877693116665
2024-05-13 17:16:13.458367,-4.546230687507963,0.2338629824581656,-178.81556824460608,0.005820864345878363,0.07929729670286179,-0.9991495609283447,0.0986684039235115,-0.0010510286083444953,0.00458426121622324
2024-05-13 17:16:13.465931,-4.432736849164446,0.2397715496574762,-178.7953372242845,0.015210242010653019,0.08587519079446793,-0.9962515234947205,0.10115626454353333,1.4871402527205646e-05,0.0005458276718854904
2024-05-13 17:16:13.493866,-4.318498093314575,0.24200694250677446,-178.77996929865196,0.01598145067691803,0.08155994117259979,-0.998371958732605,0.10203448683023453,-0.002062962856143713,-0.0004295376711525023
2024-05-13 17:16:13.510412,-4.205695384737698,0.24040961205591704,-178.77070756213743,0.008777538314461708,0.07690286636352539,-0.9979292750358582,0.09933699667453766,-0.0024074281100183725,0.0001305239275097847
2024-05-13 17:16:13.536486,-4.086686595526219,0.23708130889813744,-178.78152658178274,0.0019597914069890976,0.06542893499135971,-0.9979041814804077,0.10061310231685638,-0.0020333423744887114,0.001738277729600668
2024-05-13 17:16:13.554350,-3.9740717171515185,0.23695815204966564,-178.78263307242827,0.005641428288072348,0.07274636626243591,-0.9977941513061523,0.09981939941644669,-0.00026618686388246715,0.0020884708501398563
2024-05-13 17:16:13.577564,-3.864461268237977,0.23998477962562756,-178.7688497506832,0.012407382018864155,0.07996094226837158,-0.9977760314941406,0.10011699795722961,-0.0006933186086826026,0.00048106058966368437
2024-05-13 17:16:13.595665,-3.749735434522919,0.24148357926162223,-178.7666640901488,0.013733345083892345,0.07408518344163895,-0.9971234798431396,0.10314758867025375,-0.0019837631843984127,-0.000596933881752193
2024-05-13 17:16:13.606359,-3.6247527911086177,0.2418205263672007,-178.78705903501046,0.011734780855476856,0.06253097206354141,-1.0004698038101196,0.10636341571807861,-0.0019648445304483175,0.0007767793140374124
2024-05-13 17:16:13.638485,-3.4977520402379887,0.23799225869826143,-178.8067026590634,0.004047519993036985,0.054768893867731094,-0.9988458752632141,0.10608235746622086,-0.0030015860684216022,0.0038934526965022087
2024-05-13 17:16:13.651252,-3.379100128410643,0.23455261812092534,-178.7939302053155,0.004678613971918821,0.06481654196977615,-0.998231828212738,0.10558074712753296,-0.0035353058483451605,0.004222663585096598
2024-05-13 17:16:13.674364,-3.26589635966344,0.2348073895130521,-178.77005186397713,0.011716006323695183,0.06964655965566635,-0.9995669722557068,0.10392867773771286,-0.003206987399607897,0.0014066534349694848
2024-05-13 17:16:13.698434,-3.147344125909294,0.23378761025345746,-178.7606262029225,0.011638117954134941,0.0619993582367897,-0.997432291507721,0.10560391843318939,-0.003942660987377167,0.0011485426221042871
2024-05-13 17:16:13.712662,-3.020102397427011,0.23189964991733072,-178.77307080759027,0.011454197578132153,0.05060992017388344,-0.9995503425598145,0.10795025527477264,-0.004103696905076504,0.001800506142899394
2024-05-13 17:16:13.734348,-2.894323396644168,0.22987708682978716,-178.78413571404568,0.003799672704190016,0.052473604679107666,-0.9978036284446716,0.10992718487977982,-0.002421883400529623,0.00025545229436829686
2024-05-13 17:16:13.758313,-2.7736747217016515,0.22674821985968663,-178.78832945019607,0.004754630848765373,0.05782671645283699,-0.9985499978065491,0.108134925365448,-0.0029669231735169888,-0.0018727376591414213
2024-05-13 17:16:13.775336,-2.6512753838974956,0.2260295825733808,-178.79832884714097,0.006334447767585516,0.0543159656226635,-0.9991477131843567,0.1093931496143341,-0.0018223143415525556,-0.0013436581939458847
2024-05-13 17:16:13.794483,-2.524894472694046,0.22442539525292693,-178.82474801885058,0.008201375603675842,0.04192865639925003,-1.0000464916229248,0.10960868746042252,-0.003049231832846999,0.0033489076886326075
2024-05-13 17:16:13.816520,-2.397174630969862,0.2258217954122243,-178.85260153028588,0.011087034828960896,0.03743034973740578,-0.9981298446655273,0.1090751364827156,-0.0014268608065322042,0.002428593812510371
2024-05-13 17:16:13.835556,-2.2765432449436815,0.22804990450510296,-178.85078469996668,0.008380898274481297,0.04518591985106468,-1.0011299848556519,0.10645975172519684,-0.0004595390928443521,0.001275829505175352
2024-05-13 17:16:13.853465,-2.156086669071571,0.22876243197375282,-178.83525284979405,0.008465513586997986,0.05122869089245796,-0.9999386072158813,0.10940035432577133,-0.0008296057349070907,0.000816255749668926
2024-05-13 17:16:13.877712,-2.029865200096559,0.2314533931046056,-178.83126401931878,0.009730080142617226,0.043433234095573425,-0.9994043707847595,0.11288396269083023,0.0011617252603173256,0.001265855273231864
2024-05-13 17:16:13.896363,-1.8968991327595703,0.23232829764860194,-178.85385828509317,0.007266421336680651,0.03216194733977318,-1.000630259513855,0.1143542230129242,0.0006088195950724185,0.001495203236117959
2024-05-13 17:16:13.902812,-1.7683213552426091,0.23339196620969918,-178.88007255112768,0.010367413982748985,0.030148988589644432,-1.0012836456298828,0.11170917749404907,-0.0008611203520558774,0.0004199742979835719
2024-05-13 17:16:13.938089,-1.6422644511379116,0.2364387641880538,-178.89802228826647,0.01142510212957859,0.03502080217003822,-0.9988014698028564,0.11160708963871002,-0.00021032386575825512,-0.0013065958628430963
2024-05-13 17:16:13.948409,-1.5164138400904896,0.23738690650264263,-178.91726976134757,0.012279522605240345,0.03221891447901726,-1.0017145872116089,0.11086384207010269,-0.001646122895181179,5.3142313845455647e-05
2024-05-13 17:16:13.973480,-1.389590887581693,0.23390983328700365,-178.94214531030477,0.005829841364175081,0.024534333497285843,-0.9989405274391174,0.10999603569507599,-0.003402060829102993,0.0029140154365450144
2024-05-13 17:16:13.994955,-1.2612202568956536,0.2305281425959069,-178.96308667030002,0.0036601745523512363,0.021255170926451683,-0.9996187686920166,0.11161740869283676,-0.002900352468714118,0.003398077329620719
2024-05-13 17:16:14.016121,-1.1321758920810159,0.23192155454744237,-178.9734548974601,0.005817175842821598,0.02639312855899334,-0.9993430376052856,0.11303021758794785,-0.00015099052689038217,0.0005600164877250791
2024-05-13 17:16:14.034128,-1.0047513493167293,0.23422484908204405,-178.9749165579425,0.013617360033094883,0.02760232239961624,-1.0010640621185303,0.11462237685918808,-0.0019932729192078114,0.001984533853828907
2024-05-13 17:16:14.056751,-0.8765126266590357,0.23457615025705014,-178.9897380684414,0.012666220776736736,0.023650335147976875,-1.0009541511535645,0.1142638623714447,-0.0038131142500787973,0.0013933810405433178
2024-05-13 17:16:14.076336,-0.74690381074252,0.22823322571520904,-179.02562388234065,0.005541685502976179,0.012935517355799675,-1.0006911754608154,0.11208774894475937,-0.005367259029299021,-0.0006777155213057995
2024-05-13 17:16:14.093741,-0.617462601264934,0.22560378964773925,-179.0654302248235,0.005413260776549578,0.010949069634079933,-1.0015791654586792,0.11214321851730347,-0.0031453073024749756,-0.0017015490448102355
2024-05-13 17:16:14.109366,-0.49165702677735185,0.22494064764843977,-179.09936260462013,0.008066792972385883,0.008434331975877285,-1.0006678104400635,0.10953696817159653,-0.002948283450677991,0.0012865818571299314
2024-05-13 17:16:14.136496,-0.3706756469170614,0.22463107466039423,-179.1207274363439,0.009606297127902508,0.012319644913077354,-1.0023397207260132,0.10826093703508377,-0.0033242697827517986,0.0036962947342544794
2024-05-13 17:16:14.154214,-0.2442572230340292,0.22138235921470115,-179.13880011688778,0.006452114321291447,0.00987541489303112,-0.9998717308044434,0.1113499253988266,-0.003748125396668911,0.00368648674339056
2024-05-13 17:16:14.170108,-0.11349663978829364,0.22162405719786968,-179.16060208071843,0.007969975471496582,0.00760534405708313,-0.9993975758552551,0.11351043730974197,-0.002169588580727577,0.00028531462885439396
2024-05-13 17:16:14.181528,0.017562557460325024,0.22168404813673206,-179.1892478940975,0.007920907810330391,0.00019068579422309995,-1.0003842115402222,0.11375387758016586,-0.0010103033855557442,0.0018084488110616803
2024-05-13 17:16:14.213637,0.14501406746564147,0.22223988146086832,-179.21624080169738,0.00595380924642086,0.001401444780640304,-1.0006732940673828,0.11243951320648193,-0.0002480002585798502,0.000628220965154469
2024-05-13 17:16:14.229134,0.2733610592938502,0.22416005841192782,-179.2455423132367,0.008527294732630253,0.002034875564277172,-1.0013824701309204,0.11349517107009888,0.0005042968550696969,-0.0012354592327028513
2024-05-13 17:16:14.256485,0.4016654691614522,0.22435242428659888,-179.27743929666067,0.01131108682602644,0.00025617610663175583,-0.9996366500854492,0.11416229605674744,-0.002181598450988531,-0.000949531327933073
2024-05-13 17:16:14.273538,0.5332924725755744,0.22733006659960708,-179.32526428122912,0.014247728511691093,-0.007774794474244118,-1.0010273456573486,0.11445707827806473,-0.0014795976458117366,-4.031442222185433e-05
2024-05-13 17:16:14.298497,0.6667874526864158,0.22853471453404164,-179.38408587036128,0.009267950430512428,-0.016286253929138184,-1.0011632442474365,0.11389627307653427,-0.0012138786260038614,0.0021365226712077856
2024-05-13 17:16:14.308500,0.7938273704230663,0.2267653220130381,-179.42081862771758,0.005863569211214781,-0.0114325862377882,-1.0026578903198242,0.11167202889919281,-0.0019220500253140926,0.003366023302078247
2024-05-13 17:16:14.319529,0.9179375105317514,0.2262136775158538,-179.4437544029505,0.007447608280926943,-0.007666212972253561,-0.9989984035491943,0.11084561794996262,-0.002680199919268489,0.002255738712847233
2024-05-13 17:16:14.358480,1.042932747107335,0.22602360615785702,-179.46774202731558,0.009015535935759544,-0.011418531648814678,-1.0002645254135132,0.11049007624387741,-0.0009865155443549156,0.003584747901186347
2024-05-13 17:16:14.369035,1.1714348589348973,0.22789603848579257,-179.5111956908152,0.006896050181239843,-0.019777167588472366,-0.9993746876716614,0.1116585060954094,-0.00011088349856436253,0.0017195147229358554
2024-05-13 17:16:14.394381,1.3015545516569886,0.22820104912091593,-179.5581873923049,0.007040988653898239,-0.020031016319990158,-1.0004584789276123,0.11386270076036453,-0.00011070311302319169,-0.0004939005011692643
2024-05-13 17:16:14.418479,1.429161054929633,0.2311714877187839,-179.59554852706486,0.012273943983018398,-0.015657346695661545,-1.00209379196167,0.11438589543104172,0.00012549916573334485,-0.00086249626474455
2024-05-13 17:16:14.431798,1.5559770705275537,0.230515149228228,-179.6381962282424,0.008113369345664978,-0.019845426082611084,-1.0007240772247314,0.11245907098054886,-0.0017923203995451331,-3.123577334918082e-05
2024-05-13 17:16:14.459590,1.6851083068106976,0.22950265372505294,-179.70076076103973,0.009911077097058296,-0.03156203031539917,-1.0008550882339478,0.11074225604534149,-0.0036213265266269445,0.0011817989870905876
2024-05-13 17:16:14.478479,1.8133637847761988,0.22678277101193337,-179.75790212363606,0.006263593677431345,-0.035964373499155045,-1.0008466243743896,0.11010703444480896,-0.0027493322268128395,0.0013396745780482888
2024-05-13 17:16:14.494067,1.9363603372459075,0.22724535624564307,-179.7936513337519,0.010142947547137737,-0.029177313670516014,-1.0003087520599365,0.10845853388309479,-0.0018161195330321789,0.001665197778493166
2024-05-13 17:16:14.514426,2.054387286764197,0.22458651834823048,-179.82069888286517,0.0055816760286688805,-0.025358177721500397,-0.9998028874397278,0.10666421800851822,-0.0025145565159618855,0.0018445111345499754
2024-05-13 17:16:14.538480,2.1757759700146027,0.22291284185709967,-179.86730809376132,0.008044440299272537,-0.03233237564563751,-0.9996463060379028,0.107387475669384,-0.0031463385093957186,0.000883435714058578
2024-05-13 17:16:14.548050,2.3047980299927318,0.22146629583629826,-179.92582915456998,0.002909977687522769,-0.03839077055454254,-0.9981244206428528,0.11196957528591156,-0.0007972541498020291,-0.0002738756884355098
2024-05-13 17:16:14.574392,2.436247155003743,0.2250348829146448,-179.98790191374707,0.009544732980430126,-0.03903459757566452,-0.9991175532341003,0.11376678198575974,0.0005487157613970339,-0.0016897262539714575
2024-05-13 17:16:14.597734,2.56236958623579,0.2268803680118705,179.95394221319376,0.011435618624091148,-0.04043583571910858,-1.001244306564331,0.11135197430849075,-0.00035846675746142864,0.0008907471783459187
2024-05-13 17:16:14.607593,2.6810663211795642,0.2287833761085124,179.89376824660596,0.010362448170781136,-0.04347371309995651,-1.000303864479065,0.10604336857795715,-0.00044445693492889404,0.00021441225544549525
2024-05-13 17:16:14.619210,2.8068933467300083,0.22722499908026525,179.82744710976513,0.008656064048409462,-0.04948241263628006,-0.9980081915855408,0.10745961964130402,-0.0018722207751125097,0.00019219104433432221
2024-05-13 17:16:14.658143,2.929576564271543,0.2274417508647074,179.7764802381785,0.010365611873567104,-0.04808921366930008,-0.9998098611831665,0.10756228864192963,-0.002302398905158043,0.0030605734791606665
2024-05-13 17:16:14.681781,3.04779027677495,0.22654937064138933,179.72077321530787,0.008865398354828358,-0.04953298345208168,-0.999448835849762,0.10369108617305756,-0.0022486376110464334,0.003006531158462167
2024-05-13 17:16:14.694526,3.165017240386702,0.22332325351689547,179.6723471740925,0.005685974843800068,-0.04766291007399559,-0.9987860918045044,0.10509563982486725,-0.0027497101109474897,0.001884999219328165
2024-05-13 17:16:14.713716,3.2885019379386553,0.21917763551560185,179.60609433914337,0.003993922378867865,-0.05195195600390434,-0.999730110168457,0.10808969289064407,-0.0030223785433918238,-0.0012646109098568559
2024-05-13 17:16:14.736430,3.4139240613373647,0.22174485282860107,179.5382569003068,0.010331586003303528,-0.0564742386341095,-0.9992731213569641,0.10856439918279648,-0.0008471503388136625,0.001043867552652955
2024-05-13 17:16:14.753878,3.5365176326460426,0.2233120343975752,179.46444987613563,0.00906542781740427,-0.06275582313537598,-0.9969719052314758,0.10502112656831741,0.0005388034041970968,0.002779142465442419
2024-05-13 17:16:14.775113,3.653714500736764,0.22497981451446156,179.3928011917422,0.0059186541475355625,-0.06452306360006332,-1.000048279762268,0.1022975817322731,0.0006559263565577567,0.0022863629274070263
2024-05-13 17:16:14.796422,3.7648719874973136,0.2266766896363866,179.33059182878173,0.012133768759667873,-0.05892399698495865,-1.0011290311813354,0.09949056059122086,-0.0014589499915018678,-0.0003103433991782367
2024-05-13 17:16:14.814441,3.876600648827205,0.22789785275479085,179.2694206545751,0.013621917925775051,-0.06169651821255684,-0.9972838759422302,0.09943177551031113,-0.0013935774331912398,-0.0009430612553842366
2024-05-13 17:16:14.837600,3.991129260829979,0.22737579685053444,179.21211536743868,0.009099980816245079,-0.06607144325971603,-0.9999936819076538,0.1014297604560852,-0.0015160460025072098,0.0015404532896354795
2024-05-13 17:16:14.856280,4.110614455736067,0.22781810496014565,179.1439637399003,0.008294920437037945,-0.07106305658817291,-0.9985372424125671,0.10294809937477112,-0.0009218748891726136,-0.0011359427589923143
2024-05-13 17:16:14.874272,4.229571591641947,0.22476701143313335,179.08441815071612,0.0031036154832690954,-0.0679851546883583,-0.9974858164787292,0.10426224023103714,-0.002370885107666254,-0.002588663948699832
2024-05-13 17:16:14.889714,4.344650033872907,0.22544979022629663,179.02596539179916,0.01339257787913084,-0.06716474890708923,-0.9988487362861633,0.10382608324289322,-0.0027684862725436687,-0.001018322422169149
2024-05-13 17:16:14.916278,4.461287893668746,0.22428855134568867,178.95601059431988,0.00801099929958582,-0.07502777874469757,-0.9943804144859314,0.10312192887067795,-0.002101791789755225,0.002873421413823962
2024-05-13 17:16:14.934322,4.578986994106875,0.2241101126536221,178.87037368250625,0.008227726444602013,-0.08255860954523087,-0.996148407459259,0.10109734535217285,-0.0020034057088196278,0.001682750298641622
2024-05-13 17:16:14.949441,4.695318776050532,0.22477058661027705,178.79626613001162,0.005438263062387705,-0.079796701669693,-0.9965764880180359,0.10148511081933975,0.0008369120769202709,-0.000629130401648581
2024-05-13 17:16:14.976378,4.804846408920387,0.2250766377820318,178.73760846541956,0.007473362144082785,-0.0777927115559578,-0.9977648258209229,0.09839197993278503,-0.000960161502007395,0.0008630377124063671
2024-05-13 17:16:14.993682,4.91128594251175,0.22673928191682743,178.67504393262223,0.009458998218178749,-0.07859250903129578,-0.9972928166389465,0.09553519636392593,-0.0008391920709982514,0.0008765645325183868
2024-05-13 17:16:15.017653,5.027347931983192,0.2245098921634794,178.60110030466768,0.007181829307228327,-0.08724027127027512,-0.9983054399490356,0.09960097819566727,-0.0017411877634003758,0.0009451553341932595
2024-05-13 17:16:15.036125,5.143243008706791,0.2239433599883386,178.52654195968782,0.009528713300824165,-0.0863436907529831,-0.9964340925216675,0.10131215304136276,-0.0029148992616683245,0.0006204495439305902
2024-05-13 17:16:15.047294,5.254841042668806,0.22602862207802876,178.45545335080632,0.010600223205983639,-0.08650842308998108,-0.9961759448051453,0.09860939532518387,-0.0015559138264507055,-0.0001700045249890536
2024-05-13 17:16:15.077862,5.3639042226751,0.22348829863488648,178.3886541007236,0.005651520099490881,-0.09163803607225418,-0.9972010254859924,0.0963931530714035,-0.0015985321952030063,0.0017966554732993245
2024-05-13 17:16:15.095638,5.469921992085215,0.22634518533780298,178.32057077507693,0.007546185981482267,-0.09208898991346359,-0.9965912699699402,0.09391152858734131,0.0005811628070659935,-0.0015333435731008649
2024-05-13 17:16:15.105053,5.578984318317863,0.22825387636527775,178.24818443025313,0.008214478380978107,-0.0958552360534668,-0.996317982673645,0.09442237764596939,0.0006689154542982578,-0.0004635929362848401
2024-05-13 17:16:15.138475,5.684129957948332,0.23104995837632528,178.18706789755984,0.010263632982969284,-0.09186095744371414,-0.996651291847229,0.09427405148744583,-0.0006224401877261698,0.000871900818310678
2024-05-13 17:16:15.150950,5.792841810099194,0.23229385321806095,178.1116626091229,0.008917010389268398,-0.09879499673843384,-0.9960198998451233,0.09436538070440292,-0.00011085913138231263,0.0012918149586766958
2024-05-13 17:16:15.174403,5.902622586855163,0.23199751372153232,178.04020517002624,0.006040432956069708,-0.10255610942840576,-0.9958363175392151,0.09515336155891418,-5.545800377149135e-06,0.0027372741606086493
2024-05-13 17:16:15.198413,6.008944726570166,0.23246276699788654,177.9705372404921,0.009396294131875038,-0.10187079757452011,-0.9986994862556458,0.09452562779188156,-0.0012026556069031358,0.0017391783185303211
2024-05-13 17:16:15.212792,6.110339738572652,0.23220370005710209,177.90858742472008,0.012605203315615654,-0.09893558919429779,-0.9956668615341187,0.09082183241844177,-0.0030091721564531326,0.001869727042503655
2024-05-13 17:16:15.234213,6.214795529096949,0.2313913344326937,177.83894681594265,0.012853182852268219,-0.10485080629587173,-0.9945138692855835,0.09177200496196747,-0.0031010080128908157,0.0006681788945570588
2024-05-13 17:16:15.258492,6.317085295880706,0.22964846225557684,177.7619432632399,0.010035461746156216,-0.11182459443807602,-0.9940212368965149,0.08878207206726074,-0.0032491586171090603,0.00027097322163172066
2024-05-13 17:16:15.275556,6.417667942258784,0.22837028306585888,177.68526755961736,0.004301018547266722,-0.11400115489959717,-0.9942260384559631,0.08679745346307755,-0.0010066351387649775,0.0010994215263053775
2024-05-13 17:16:15.294297,6.512172574049195,0.22578270858748187,177.62079057385245,0.006632557604461908,-0.10721142590045929,-0.9957384467124939,0.08580520004034042,-0.0017787176184356213,0.00086865050252527
2024-05-13 17:16:15.318484,6.610106387689777,0.2282858928770122,177.5582533618118,0.011426293291151524,-0.10345667600631714,-0.993793249130249,0.0889834463596344,-0.0016909358091652393,0.0003667659475468099
2024-05-13 17:16:15.328114,6.711645687438479,0.2291989504308254,177.47987011089674,0.01292509213089943,-0.11254870146512985,-0.9941754341125488,0.08982616662979126,-0.002398829907178879,0.0019059444312006235
2024-05-13 17:16:15.360076,6.815219102899375,0.2277776574336545,177.38953402893415,0.008933312259614468,-0.12272503226995468,-0.9919227957725525,0.08770658820867538,-0.0029724615160375834,0.001046585850417614
2024-05-13 17:16:15.377852,6.9145159661661975,0.2256232129981915,177.30229885285473,0.0029110731557011604,-0.1219547912478447,-0.9955735206604004,0.08667358756065369,-0.0009409581543877721,0.0010192608460783958
2024-05-13 17:16:15.389434,7.008694456423742,0.22331929147356833,177.23401062153295,0.002419360913336277,-0.11431900411844254,-0.9954191446304321,0.08473904430866241,-0.0007253296207636595,0.0006395669188350439
2024-05-13 17:16:15.400152,7.100795715399956,0.22564546447384692,177.1641924278371,0.011048819869756699,-0.11529193073511124,-0.9951958060264587,0.08269896358251572,-0.0002304515801370144,0.0017549460753798485
2024-05-13 17:16:15.438538,7.1922865262191,0.22800630868829125,177.08513981838334,0.011348005384206772,-0.12346171587705612,-0.993207573890686,0.07978807389736176,-0.00033931611687876284,0.003122631460428238
2024-05-13 17:16:15.447528,7.286981976419448,0.22946479419992696,176.9961151327414,0.012539907358586788,-0.1323661059141159,-0.9898566603660583,0.07961045950651169,0.0001462576910853386,0.0022316034883260727
2024-05-13 17:16:15.474472,7.377862765968346,0.23133335786602793,176.92566856164188,0.005811235401779413,-0.12491173297166824,-0.9927473068237305,0.08063583076000214,0.0015862752916291356,2.7740607038140297e-05
2024-05-13 17:16:15.494388,7.465097942047748,0.23033081416191697,176.8667240291047,0.005398725159466267,-0.12069207429885864,-0.9938359260559082,0.07981348037719727,-0.0010910109849646688,-0.00028465621289797127
2024-05-13 17:16:15.516482,7.551100268981965,0.22800959038074403,176.7939688540657,0.0035027156118303537,-0.1265498697757721,-0.9934481382369995,0.07692897319793701,-0.0021086069755256176,0.00166467041708529
2024-05-13 17:16:15.534135,7.638470341297475,0.2299775119549275,176.70656975344622,0.011929537169635296,-0.13719122111797333,-0.9915854334831238,0.07379569858312607,-0.00027082202723249793,0.003591428278014064
2024-05-13 17:16:15.556398,7.721557885003388,0.2335227269797079,176.61190333154985,0.012682757340371609,-0.13492213189601898,-0.9904604554176331,0.0718822032213211,0.0009209696436300874,0.0005692329141311347
2024-05-13 17:16:15.581615,7.802341093638067,0.23658761428719247,176.53791872246026,0.012789402157068253,-0.12644046545028687,-0.9915013313293457,0.07386903464794159,2.5924149667844176e-05,-0.00045954808592796326
2024-05-13 17:16:15.593623,7.883703160804905,0.2344370118331376,176.4629778868869,0.0073662507347762585,-0.12671512365341187,-0.9908698201179504,0.07432805001735687,-0.0006454373942688107,-0.00015397169045172632
2024-05-13 17:16:15.610570,7.9732529172392965,0.23128925512111373,176.36781969137027,0.002147720428183675,-0.13972383737564087,-0.9909517765045166,0.07581686973571777,-0.0018008843762800097,0.0012825506273657084
2024-05-13 17:16:15.636533,8.061823395301436,0.23315616460077507,176.27577606211517,0.006515218410640955,-0.14450013637542725,-0.9924921989440918,0.07535935938358307,0.0003595122543629259,0.002604536945000291
2024-05-13 17:16:15.654175,8.143836037986718,0.23913236668112467,176.1924750749977,0.015508472919464111,-0.14198604226112366,-0.9914178252220154,0.0710982084274292,0.0011633289977908134,0.004155480768531561
2024-05-13 17:16:15.669918,8.218239849936605,0.2420046213096737,176.12809371188118,0.015838375315070152,-0.13542038202285767,-0.9938942790031433,0.0691438615322113,-0.0015096755232661963,0.0028169029392302036
2024-05-13 17:16:15.681537,8.292235558083586,0.23817493957813285,176.0566089520278,0.0077722398564219475,-0.1380220353603363,-0.9919976592063904,0.06693445146083832,-0.0038211424835026264,0.000610632065217942
2024-05-13 17:16:15.713626,8.367809039928838,0.23403162943372674,175.97358117247714,0.004653542302548885,-0.14583835005760193,-0.9893587231636047,0.0657355934381485,-0.003068333026021719,0.000414329202612862
2024-05-13 17:16:15.729449,8.441960134879436,0.2302416481767366,175.89478811021186,0.0004466203390620649,-0.14745135605335236,-0.989574670791626,0.0640568807721138,-0.0008309355471283197,0.002065514912828803
2024-05-13 17:16:15.744299,8.512081418219724,0.23429814021348946,175.82430055797735,0.010519149713218212,-0.14366330206394196,-0.9906814098358154,0.06289533525705338,0.00044387037632986903,0.0014495545765385032
2024-05-13 17:16:15.773546,8.582709843105887,0.23993854244659774,175.7508760243997,0.015638288110494614,-0.14157381653785706,-0.9899448156356812,0.06376941502094269,0.001023933058604598,0.0006902496097609401
2024-05-13 17:16:15.789756,8.65506289075748,0.23835922128359097,175.66518447107273,0.01236717402935028,-0.1469145119190216,-0.9917513728141785,0.06412359327077866,-0.0034616971388459206,0.0013153807958588004
2024-05-13 17:16:15.816469,8.727689145975871,0.23422983832178934,175.5710508039316,0.006644632667303085,-0.15245038270950317,-0.9894068837165833,0.06206852197647095,-0.003248809138312936,-0.00015889231872279197
2024-05-13 17:16:15.834338,8.796338523550023,0.23150459284295424,175.48035955213217,0.004768822807818651,-0.15281380712985992,-0.9889596104621887,0.06000257283449173,-0.0019657472148537636,0.00014935551735106856
2024-05-13 17:16:15.857813,8.859387999778411,0.23203369237979224,175.4070579619596,0.007454205770045519,-0.14641840755939484,-0.9887049794197083,0.05885535478591919,-0.0014151178766041994,6.612768629565835e-05
2024-05-13 17:16:15.875802,8.926120655516728,0.23607454968664815,175.32345644651863,0.013238353654742241,-0.14993906021118164,-0.9889430999755859,0.059248894453048706,-0.000690388260409236,-0.0002603385946713388
2024-05-13 17:16:15.887850,8.994639405723003,0.23862861354940978,175.23288813812428,0.013685224577784538,-0.15757989883422852,-0.9880477786064148,0.0591309554874897,-0.0008904386777430773,0.0015218764310702682
2024-05-13 17:16:15.917247,9.063622608792839,0.238544516845254,175.13936918800846,0.009443312883377075,-0.16197824478149414,-0.9885582327842712,0.05789034441113472,-0.002388118766248226,0.0013207205338403583
2024-05-13 17:16:15.935235,9.125342759454012,0.23609962928750677,175.07172299446864,0.003969372250139713,-0.15278519690036774,-0.9906127452850342,0.057049088180065155,-0.001672261394560337,0.00035224517341703176
2024-05-13 17:16:15.950350,9.186136565709004,0.23428418635045856,175.0040358197938,0.0052716475911438465,-0.15418629348278046,-0.9893859028816223,0.05518881976604462,-0.001998485764488578,0.0023048643488436937
2024-05-13 17:16:15.977897,9.245456758650565,0.2328421093010867,174.93469573933984,0.007473884150385857,-0.1567019373178482,-0.9892889857292175,0.05384054034948349,-0.002447981620207429,0.0030808537267148495
2024-05-13 17:16:15.995274,9.304770975176602,0.2339499606483775,174.85073905406207,0.010691031813621521,-0.16397212445735931,-0.9874244332313538,0.05072387307882309,-0.0008458900265395641,0.002618342638015747
2024-05-13 17:16:16.014132,9.358514318660847,0.2361199864528846,174.773079803199,0.011534326709806919,-0.16212862730026245,-0.9889727830886841,0.04735688120126724,-0.0018891585059463978,0.0008643416804261506
2024-05-13 17:16:16.038469,9.408238949592187,0.2354928363488599,174.69592598633454,0.010484226047992706,-0.15810562670230865,-0.9871083498001099,0.04576313495635986,-0.0024630636908113956,0.0010592350736260414
2024-05-13 17:16:16.048031,9.458793448507683,0.2334617888857067,174.6208895281128,0.004206907004117966,-0.15855088829994202,-0.9880319833755493,0.04690276086330414,-0.0014094687066972256,0.0005090943304821849
2024-05-13 17:16:16.074272,9.511212589066592,0.2314900253301151,174.5395966166113,0.00426898617297411,-0.16333574056625366,-0.9874292016029358,0.045948468148708344,-0.00140777335036546,0.0001715320977382362
2024-05-13 17:16:16.098449,9.563211672991544,0.23211349353529032,174.44964302524224,0.009035845287144184,-0.16694572567939758,-0.9863575100898743,0.04510650411248207,-0.001346776494756341,0.001782552688382566
2024-05-13 17:16:16.107953,9.610837728300398,0.2338532707829395,174.36960686854803,0.011438220739364624,-0.16350731253623962,-0.98739093542099,0.04366724193096161,-0.0011160806752741337,0.0008368721464648843
2024-05-13 17:16:16.119212,9.658276807180721,0.2364145383608414,174.28737139094108,0.01234031654894352,-0.16312125325202942,-0.9853057861328125,0.04252089187502861,-0.0015593767166137695,0.00021958444267511368
2024-05-13 17:16:16.158123,9.705638192659235,0.23626096582622189,174.20050504507685,0.009262828156352043,-0.16692815721035004,-0.9874801635742188,0.04162261262536049,-0.0009873575763776898,0.001958489418029785
2024-05-13 17:16:16.166439,9.750341780776969,0.23474903942041608,174.11269613310716,0.004437248222529888,-0.1703931838274002,-0.986682653427124,0.03863711282610893,-0.0004770538071170449,0.002825905568897724
2024-05-13 17:16:16.193464,9.790990797848654,0.23343900380152235,174.0280700892907,0.006689972709864378,-0.16918633878231049,-0.9874103665351868,0.0355389378964901,-0.0014820308424532413,0.0009893891401588917
2024-05-13 17:16:16.213740,9.828663559989504,0.23748255583144925,173.95248721593535,0.011574557051062584,-0.16649065911769867,-0.987087607383728,0.034796856343746185,0.0003876593254972249,0.0017554170917719603
2024-05-13 17:16:16.236223,9.864528029547596,0.23913076585553794,173.88123468251376,0.012301625683903694,-0.16525250673294067,-0.9871403574943542,0.03430579975247383,-0.001367112621665001,0.0004210193583276123
2024-05-13 17:16:16.260406,9.904120928618868,0.23975908989832623,173.79472350648638,0.010919787921011448,-0.17089097201824188,-0.9861641526222229,0.03399449959397316,-0.0020549343898892403,-0.0007967845303937793
2024-05-13 17:16:16.275379,9.942409261558666,0.2379209952792259,173.7141819157936,0.007125549484044313,-0.1726280152797699,-0.9860296249389648,0.03320696949958801,-0.0012042231392115355,0.0005958447582088411
2024-05-13 17:16:16.296086,9.97927520760381,0.23571924644767525,173.6316185891065,0.004892358090728521,-0.17186850309371948,-0.9857646226882935,0.03258901461958885,-0.0013549580471590161,0.0004751913947984576
2024-05-13 17:16:16.314394,10.012941210022802,0.2352648521048843,173.55491556472725,0.00585512351244688,-0.16952675580978394,-0.9867647290229797,0.031446028500795364,-0.0009449969511479139,0.0012426020111888647
2024-05-13 17:16:16.338035,10.045857599180387,0.23617598866799341,173.47742023840428,0.011183264665305614,-0.17206436395645142,-0.9864429831504822,0.03029664233326912,-0.0014257833827286959,0.0013326384359970689
2024-05-13 17:16:16.356441,10.07697679481261,0.23522483146521625,173.39834030819387,0.010317113250494003,-0.17476698756217957,-0.9860295057296753,0.027832206338644028,-0.0022518346086144447,0.0021706349216401577
2024-05-13 17:16:16.373855,10.104079839212869,0.23523262214973828,173.31938332138853,0.010074351914227009,-0.17522695660591125,-0.9854575395584106,0.02388385497033596,-0.0011699112365022302,0.0003686230629682541
2024-05-13 17:16:16.390136,10.12786768054473,0.23608124647368592,173.24904603331572,0.0073412759229540825,-0.17255498468875885,-0.9871796369552612,0.022713353857398033,-0.00025736825773492455,0.0002859570668078959
2024-05-13 17:16:16.416446,10.150416696315881,0.23461190202848692,173.1796786321051,0.00744639104232192,-0.17291978001594543,-0.9861985445022583,0.021721430122852325,-0.0015623647486791015,0.0005096188979223371
2024-05-13 17:16:16.434400,10.173861320641949,0.23239932094379948,173.1030712303742,0.006475505419075489,-0.1752268522977829,-0.9861992001533508,0.0210666973143816,-0.0015448222402483225,0.0008507185848429799
2024-05-13 17:16:16.449275,10.196444487358951,0.23172283873127733,173.02291213027496,0.00975531805306673,-0.17765681445598602,-0.9857059121131897,0.019804775714874268,-0.001928719924762845,0.0009747004951350391
2024-05-13 17:16:16.482345,10.216276795387728,0.23176568749614856,172.94332676606595,0.0101639898493886,-0.17559242248535156,-0.9857358932495117,0.01821232959628105,-0.001155933947302401,0.0016433526761829853
2024-05-13 17:16:16.493771,10.232565089010917,0.23065911680932716,172.86995687400167,0.009896215051412582,-0.1733008474111557,-0.9870631694793701,0.016171040013432503,-0.003027592319995165,0.0013001990737393498
2024-05-13 17:16:16.517825,10.248022660876302,0.2291000994508453,172.79321286848742,0.009021604433655739,-0.17523494362831116,-0.9861103892326355,0.014411544427275658,-0.0034295276273041964,0.0008489677566103637
2024-05-13 17:16:16.536115,10.261996374144502,0.22744732707383444,172.70787648499729,0.00918415654450655,-0.17825666069984436,-0.9848276972770691,0.012962562963366508,-0.002824166789650917,0.002354924101382494
2024-05-13 17:16:16.546344,10.274207044833192,0.22582905248821744,172.62853700759842,0.007313298527151346,-0.1781618297100067,-0.9851908087730408,0.011556033976376057,-0.0021359212696552277,0.002143972320482135
2024-05-13 17:16:16.577599,10.283372304925702,0.22592128672243908,172.55605504012624,0.01022323314100504,-0.1752370148897171,-0.9854919910430908,0.008856757543981075,-0.002036277437582612,0.0009183099027723074
2024-05-13 17:16:16.595626,10.291093833782401,0.22539626929084722,172.48063609131097,0.010253744199872017,-0.17502157390117645,-0.9858753085136414,0.008456062525510788,-0.0020303968340158463,0.0015446789329871535
2024-05-13 17:16:16.605707,10.299624740055748,0.2236154041864722,172.3964198588447,0.00856870599091053,-0.1776459813117981,-0.9847444295883179,0.007150998804718256,-0.0035373270511627197,0.0007616528309881687
2024-05-13 17:16:16.638447,10.305096575354574,0.22157309758335902,172.31194407918997,0.007812823168933392,-0.1788487583398819,-0.9838336706161499,0.004871328826993704,-0.0031915355939418077,6.278988439589739e-05
2024-05-13 17:16:16.650917,10.309041009600257,0.22296917757753906,172.23291879049293,0.008348468691110611,-0.17683692276477814,-0.9849211573600769,0.004048679955303669,-0.00020967423915863037,0.001273613190278411
2024-05-13 17:16:16.674275,10.311770523947324,0.22134072440923316,172.1601089739406,0.008242832496762276,-0.17640544474124908,-0.9856716394424438,0.0035303004551678896,-0.002738329116255045,0.0014852090971544385
2024-05-13 17:16:16.698373,10.314068028829386,0.22061394959286149,172.08234044005084,0.009474228136241436,-0.17600858211517334,-0.9849602580070496,0.003086354350671172,-0.0021251828875392675,0.001296037808060646
2024-05-13 17:16:16.713042,10.316318576160905,0.21848695931621076,172.00163492481795,0.007583857513964176,-0.17852133512496948,-0.9850853085517883,0.002326945774257183,-0.0019951569847762585,0.0005343263619579375
2024-05-13 17:16:16.734221,10.31670704316995,0.2194716271346033,171.92560125897737,0.007767468225210905,-0.17808955907821655,-0.9852131009101868,0.0016819328302517533,-0.000645636988338083,0.0017587054753676057
2024-05-13 17:16:16.758467,10.317033184702819,0.21884583773232733,171.8532149141536,0.008585307747125626,-0.17593969404697418,-0.9850780963897705,0.0015720766969025135,-0.0015151069965213537,0.0006967572262510657
2024-05-13 17:16:16.775518,10.315713250645713,0.21918940158366426,171.78869694725364,0.008160119876265526,-0.17452479898929596,-0.9855119585990906,0.0004430660337675363,-0.000974103226326406,0.0019716776441782713
2024-05-13 17:16:16.794323,10.315619335544625,0.21964118124466359,171.71710290437358,0.009535939432680607,-0.1768704056739807,-0.9855760931968689,0.0006999127799645066,-0.0011278626043349504,0.0006547414232045412
2024-05-13 17:16:16.818417,10.3179484300516,0.21914100329009237,171.64388327647103,0.008858615532517433,-0.17812149226665497,-0.9845125675201416,0.0017657813150435686,-0.000913756899535656,0.0014032075414434075
2024-05-13 17:16:16.828775,10.317281632833877,0.2190249701154815,171.5749393469889,0.00888520572334528,-0.1771518886089325,-0.9846126437187195,0.0014831116423010826,-0.0018482613377273083,0.0006694708717986941
2024-05-13 17:16:16.839135,10.315600552524408,0.21885344165386425,171.51289390856854,0.008455340750515461,-0.17478977143764496,-0.9851726293563843,0.0005616141716018319,-0.0016376415733247995,0.0013200598768889904
2024-05-13 17:16:16.877869,10.316098302560173,0.21883680640797556,171.44653179059267,0.008205144666135311,-0.1765858680009842,-0.9849460124969482,0.001834582770243287,-0.0006703208782710135,0.0005901040858589113
2024-05-13 17:16:16.886978,10.315990727080745,0.2182246640438264,171.37911782348465,0.008956697769463062,-0.17751337587833405,-0.9855508804321289,0.00028923389618285,-0.00136882986407727,0.0011138065019622445
2024-05-13 17:16:16.900176,10.316519212967775,0.21817477164637358,171.3118951016734,0.008869641460478306,-0.17701023817062378,-0.9843909740447998,0.0014037051005288959,-0.001674428815022111,0.00048217817675322294
2024-05-13 17:16:16.938436,10.315504076102382,0.21886055198751195,171.25036875762993,0.00893923919647932,-0.17635786533355713,-0.9847133755683899,0.0001359222223982215,-0.0008490396430715919,0.0015261254739016294
2024-05-13 17:16:16.948461,10.314146576004841,0.21884162222494896,171.18911562115323,0.009535255841910839,-0.17546311020851135,-0.9844081401824951,0.0005709300749003887,-0.0016736611723899841,0.0011797902407124639
2024-05-13 17:16:16.973964,10.313747009938396,0.21791501101450153,171.12467961652334,0.008250836282968521,-0.17763790488243103,-0.9843241572380066,-0.00020845915423706174,-0.0013543099630624056,0.0015811789780855179
2024-05-13 17:16:16.996009,10.311209594661737,0.22054232598806892,171.0575934984955,0.01014837995171547,-0.17913728952407837,-0.984175443649292,-0.0028068674728274345,0.00014179429854266346,0.0023599835112690926
2024-05-13 17:16:17.001495,10.308731943540314,0.22361593779500108,170.9939497958093,0.010028468444943428,-0.17864520847797394,-0.9845532178878784,-0.0030618426389992237,0.0011702331248670816,0.0040927003137767315
2024-05-13 17:16:17.034317,10.305754834835835,0.22646052482132628,170.93291522538607,0.0105337118729949,-0.1765589416027069,-0.9845184683799744,-0.0019178747897967696,0.0011862108949571848,0.004499416332691908
2024-05-13 17:16:17.056809,10.300811485424038,0.22915335358203026,170.86946276799665,0.010693593882024288,-0.17639443278312683,-0.9849104285240173,-0.00359175493940711,0.0011511066695675254,0.004081456456333399
2024-05-13 17:16:17.076327,10.295476253908612,0.23155717996347808,170.810982688323,0.008716518059372902,-0.17782507836818695,-0.9842656850814819,-0.004911805968731642,0.001134419348090887,0.005219006445258856
2024-05-13 17:16:17.093696,10.28701023443238,0.23457548324638902,170.75160102367892,0.007182981353253126,-0.17776627838611603,-0.9847736358642578,-0.007257281336933374,0.0026188180781900883,0.004348118789494038
2024-05-13 17:16:17.109334,10.273436941004272,0.23998888841130014,170.6930936232486,0.008602784015238285,-0.17529207468032837,-0.9860339760780334,-0.010211454704403877,0.0039123003371059895,0.0026418534107506275
2024-05-13 17:16:17.136255,10.258207326702436,0.2454159005936984,170.63451792092656,0.009722787886857986,-0.1744256168603897,-0.9847478866577148,-0.012335027568042278,0.003456016071140766,0.002606383990496397
2024-05-13 17:16:17.160325,10.240569216944525,0.25108594478058743,170.57491769022903,0.010202974081039429,-0.17515909671783447,-0.9863834381103516,-0.013115580193698406,0.002373284660279751,0.0010734284296631813
2024-05-13 17:16:17.170221,10.222345418465284,0.25507474857544843,170.51217557251329,0.008844503201544285,-0.17802481353282928,-0.9856405258178711,-0.015432745218276978,0.0022165197879076004,0.0019941728096455336
2024-05-13 17:16:17.181577,10.198442317691178,0.2596940375276398,170.44961103971596,0.00926958117634058,-0.17892202734947205,-0.9858293533325195,-0.02041764371097088,0.003043993841856718,0.0027742411475628614
2024-05-13 17:16:17.213614,10.169768329781819,0.26316606814268056,170.39502416786922,0.006220731418579817,-0.17562280595302582,-0.9874107241630554,-0.024114305153489113,0.0029826920945197344,0.0017319935141131282
2024-05-13 17:16:17.229426,10.135049624456999,0.26519044549922244,170.34438514536274,0.007524012587964535,-0.1724265217781067,-0.9869024157524109,-0.02831145003437996,0.0015088747022673488,0.0012626892421394587
2024-05-13 17:16:17.256378,10.100488867256734,0.2688317901004855,170.28962068859758,0.00902726873755455,-0.1733180284500122,-0.9866364002227783,-0.02929985150694847,0.0017091900808736682,0.0015609448309987783
2024-05-13 17:16:17.273520,10.06401907218345,0.27158987918427485,170.2336541185385,0.0096052847802639,-0.17348553240299225,-0.9860612750053406,-0.031133336946368217,0.0014907920267432928,0.001962226815521717
2024-05-13 17:16:17.298476,10.025822946797447,0.27592243359345786,170.17322060476224,0.011158774606883526,-0.17497433722019196,-0.9864845871925354,-0.03350020945072174,0.0012823238503187895,0.0013524432433769107
2024-05-13 17:16:17.309481,9.984239901356762,0.27842268303607925,170.12224007279724,0.010687856934964657,-0.1727319061756134,-0.9869092702865601,-0.03608432784676552,0.0005653551779687405,0.0015570753021165729
2024-05-13 17:16:17.334309,9.938993313200013,0.2785788702524904,170.07558988076607,0.007956534624099731,-0.16976559162139893,-0.9866775274276733,-0.03704783320426941,0.0001453805307392031,0.0022402582690119743
2024-05-13 17:16:17.358460,9.892557418354036,0.2779087913423151,170.0265627829037,0.006965862587094307,-0.1688271462917328,-0.9863263964653015,-0.03920504450798035,-0.0011368338018655777,-0.0003879304276779294
2024-05-13 17:16:17.394408,9.845473509310553,0.27995880858867095,169.97524074148023,0.01125530805438757,-0.17076952755451202,-0.9866483807563782,-0.03999340161681175,-0.00039471540367230773,0.0013811249518767
2024-05-13 17:16:17.417529,9.746148898400227,0.28352595492398946,169.8870356785387,0.012419119477272034,-0.16934838891029358,-0.9867578148841858,-0.04367037117481232,0.0005714615108445287,0.0032911025919020176
2024-05-13 17:16:17.435997,9.69193683318419,0.2846226271725996,169.84593160011354,0.009651594795286655,-0.16638751327991486,-0.9872072339057922,-0.04681234434247017,0.00011586182517930865,0.0013263358268886805
2024-05-13 17:16:17.453515,9.635031965887874,0.28412546410621675,169.8086114464886,0.010764391161501408,-0.1637105643749237,-0.9880781173706055,-0.04746079444885254,-0.0011363846715539694,0.0024997254367917776
2024-05-13 17:16:17.465069,9.578483975975693,0.2820078119788219,169.76681068876812,0.007107860874384642,-0.16411906480789185,-0.9877073764801025,-0.04932054877281189,-0.0029609885532408953,0.0015368442982435226
2024-05-13 17:16:17.495899,9.521236745447231,0.2810105509991471,169.720925477924,0.00944865494966507,-0.16489557921886444,-0.9869297742843628,-0.049246709793806076,-0.00231580575928092,0.00014820066280663013
2024-05-13 17:16:17.511334,9.46258847236527,0.2803349492406977,169.67610577659036,0.010305849835276604,-0.16409049928188324,-0.9882281422615051,-0.05030462518334389,-0.002743239514529705,-0.0008339086198247969
2024-05-13 17:16:17.538459,9.401852722718225,0.27859298419808,169.6327750564958,0.011494521051645279,-0.16250133514404297,-0.9859644174575806,-0.05283253639936447,-0.0036488992627710104,-0.0004605096182785928
2024-05-13 17:16:17.556091,9.340205142816982,0.27573767164032376,169.58217701512436,0.00849770288914442,-0.16304849088191986,-0.9879903197288513,-0.05379728972911835,-0.0033438028767704964,0.0015268727438524365
2024-05-13 17:16:17.559256,9.275622289119926,0.27410995218374506,169.53588199293,0.007422004360705614,-0.16181692481040955,-0.9875613451004028,-0.05620989575982094,-0.002221978735178709,0.00032698141876608133
2024-05-13 17:16:17.597694,9.210170293850986,0.2725717455578906,169.4919638765668,0.009425332769751549,-0.160835400223732,-0.9888712763786316,-0.056109968572854996,-0.0021084146574139595,0.0018241414800286293
2024-05-13 17:16:17.607098,9.139199505732677,0.2698012500758042,169.45815444017526,0.009684285148978233,-0.15423935651779175,-0.9894077777862549,-0.05918622016906738,-0.0024508140049874783,0.0015381743432953954
2024-05-13 17:16:17.619145,9.068941618608987,0.26968100139381496,169.41247413500622,0.011604787781834602,-0.15682201087474823,-0.9878658056259155,-0.060151759535074234,-0.0019088571425527334,0.0009059186559170485
2024-05-13 17:16:17.658124,8.998172321071191,0.26808908706952594,169.37221700003815,0.00819008331745863,-0.1544521003961563,-0.98931485414505,-0.06054322421550751,-0.002635559067130089,-0.0017012949101626873
2024-05-13 17:16:17.666550,8.927925533004903,0.26670597376259836,169.33388597841605,0.008948056027293205,-0.154287651181221,-0.9868519306182861,-0.061073072254657745,-0.0021110500674694777,-0.0015639535849913955
2024-05-13 17:16:17.694441,8.855125107962676,0.26897036823544274,169.29519978695708,0.009907805360853672,-0.15393561124801636,-0.9894974231719971,-0.06292618811130524,-0.00047528481809422374,-0.00027176845469512045
2024-05-13 17:16:17.713720,8.77912900816253,0.2708309544540365,169.26134936943052,0.012040811590850353,-0.15244050323963165,-0.9898167848587036,-0.06503130495548248,-0.0015606323722749949,0.0012407246977090836
2024-05-13 17:16:17.736269,8.705068413218434,0.2702652760525419,169.2258870272598,0.01312868669629097,-0.1525084227323532,-0.9895477294921875,-0.06489615142345428,-0.002554018748924136,0.0023139433469623327
2024-05-13 17:16:17.753886,8.627458681226873,0.27018363394761913,169.20198136516476,0.014330853708088398,-0.14665323495864868,-0.9915469884872437,-0.06648437678813934,-0.003347489982843399,0.001509517547674477
2024-05-13 17:16:17.775359,8.549496340719408,0.2652959399053874,169.17772053323287,0.008965473622083664,-0.14638760685920715,-0.9905257821083069,-0.06724274903535843,-0.00391053780913353,0.0017822751542553306
2024-05-13 17:16:17.796268,8.471731221924228,0.26018362335291223,169.13992226636603,0.003837868571281433,-0.144178107380867,-0.9895684123039246,-0.06604275852441788,-0.00560813769698143,-0.0011228789808228612
2024-05-13 17:16:17.814422,8.393573367251772,0.2573168648922109,169.10389984868337,0.006755745969712734,-0.14695420861244202,-0.990957498550415,-0.06841664016246796,-0.0031593539752066135,0.001341890194453299
2024-05-13 17:16:17.837970,8.311524866073349,0.25790335402633285,169.07157939353087,0.009331878274679184,-0.1475977897644043,-0.990608274936676,-0.0719694197177887,-0.0010809763334691525,0.003855148097500205
2024-05-13 17:16:17.856341,8.22580513821604,0.2560352439274815,169.0438761462573,0.010256217792630196,-0.14216579496860504,-0.9922861456871033,-0.07391036301851273,-0.0028206263668835163,0.0025659194216132164
2024-05-13 17:16:17.873923,8.140338127358026,0.2555458181847678,169.01521667249992,0.014198828488588333,-0.13671459257602692,-0.99061119556427,-0.07244040071964264,-0.003132428042590618,0.00014985993038862944
2024-05-13 17:16:17.888555,8.055692446747704,0.25288980841255837,168.9904640669478,0.011727492325007915,-0.13672013580799103,-0.992434561252594,-0.0726843774318695,-0.004194163251668215,0.002414063783362508
2024-05-13 17:16:17.901381,7.971254233133421,0.2486420443986187,168.9659983293408,0.005521105602383614,-0.13669197261333466,-0.9883056282997131,-0.0725531131029129,-0.004004822112619877,0.0012376959202811122
2024-05-13 17:16:17.934388,7.88908876496546,0.24691987623242345,168.934388213862,0.006990769878029823,-0.14003269374370575,-0.9913252592086792,-0.0726776197552681,-0.0024256017059087753,0.000417891307733953
2024-05-13 17:16:17.948771,7.797932206528824,0.24961073064157047,168.91631553331814,0.010142120532691479,-0.1348622590303421,-0.9924633502960205,-0.07744430750608444,7.597627700306475e-06,0.001043152529746294
2024-05-13 17:16:17.962657,7.704785501722775,0.2502534354342128,168.90014164536356,0.011856073513627052,-0.13244792819023132,-0.9923174381256104,-0.0799856036901474,-0.0019021747866645455,0.0021227337419986725
2024-05-13 17:16:17.994479,7.611217886509124,0.24787108679605352,168.88557968205308,0.01028573140501976,-0.12911836802959442,-0.9935238361358643,-0.07900132238864899,-0.0039226943626999855,-0.0010317908599972725
2024-05-13 17:16:18.010555,7.520783620577216,0.2458556740627973,168.8651437560564,0.012407242320477962,-0.1303439438343048,-0.9920337796211243,-0.07857087254524231,-0.003427029587328434,0.0008894799975678325
2024-05-13 17:16:18.036455,7.429738052714593,0.24082625359528784,168.8474672264844,0.005169660318642855,-0.12852123379707336,-0.9907741546630859,-0.07854650169610977,-0.0036311298608779907,0.001439746585674584
2024-05-13 17:16:18.057707,7.337498909294509,0.23677162918838612,168.8297497157774,0.005596421658992767,-0.12786580622196198,-0.9926934838294983,-0.08024672418832779,-0.002650040900334716,0.00048236901056952775
2024-05-13 17:16:18.078427,7.243821157280492,0.2356642847691978,168.81204586544874,0.007176908198744059,-0.1270410418510437,-0.9923630356788635,-0.0816747173666954,-0.0012865352910012007,0.002582175424322486
2024-05-13 17:16:18.095546,7.146347100748417,0.23502646249459497,168.79727899646315,0.00987558625638485,-0.12247686088085175,-0.9932463765144348,-0.08387387543916702,-0.003139230888336897,0.0019595595076680183
2024-05-13 17:16:18.113940,7.050052105621815,0.23180536129027282,168.77997129710636,0.010865063406527042,-0.11899678409099579,-0.9931089282035828,-0.082693912088871,-0.003685031784698367,2.5701156118884683e-05
2024-05-13 17:16:18.138353,6.955034782756829,0.2327694051390231,168.7605325787285,0.01234842836856842,-0.11923112720251083,-0.9917421936988831,-0.08227810263633728,-0.0030398033559322357,0.0001532206078991294
2024-05-13 17:16:18.150571,6.855192785016875,0.2331031239130017,168.73978246403,0.010148895904421806,-0.12132571637630463,-0.9948233366012573,-0.08674301952123642,-0.0017548671457916498,0.0010198026429861784
2024-05-13 17:16:18.174411,6.75339223053242,0.23146153063467145,168.72699634990371,0.004537819419056177,-0.11827772855758667,-0.9922580718994141,-0.08736312389373779,-0.0018246503314003348,0.0003901579766534269
2024-05-13 17:16:18.190558,6.646962942224812,0.23246025903780068,168.7209721230558,0.009573336690664291,-0.11198807507753372,-0.9968311190605164,-0.08969609439373016,-0.001875614863820374,-0.0019427684601396322
2024-05-13 17:16:18.216187,6.541860845050302,0.22982738119531945,168.72150487781104,0.008705215528607368,-0.10802391916513443,-0.9934830069541931,-0.08945756405591965,-0.0035152751952409744,-0.0009173668804578483
2024-05-13 17:16:18.234328,6.439945031123603,0.23111796678333452,168.71478397166774,0.011098097078502178,-0.11117150634527206,-0.9949822425842285,-0.08813510835170746,-0.002357028890401125,0.0013853897107765079
2024-05-13 17:16:18.246163,6.342564462805792,0.2296664982238539,168.70392397088742,0.00902552343904972,-0.11486737430095673,-0.9951773881912231,-0.08777619898319244,-0.0022358717396855354,0.0025307456962764263
2024-05-13 17:16:18.282110,6.239216443587506,0.22658120039013865,168.70102797067935,0.007687414530664682,-0.11126725375652313,-0.9950032830238342,-0.08962622284889221,-0.003151574172079563,0.003781687468290329
2024-05-13 17:16:18.291218,6.132230067975719,0.2253444292222639,168.70120555559777,0.00671772938221693,-0.10278414189815521,-0.9979792833328247,-0.09113331139087677,-0.0020815134048461914,0.0022733123041689396
2024-05-13 17:16:18.318333,6.023767944616386,0.22312221650362965,168.6984871403081,0.009716641157865524,-0.10049613565206528,-0.9934172630310059,-0.09256450086832047,-0.002786126919090748,0.0018755975179374218
2024-05-13 17:16:18.335509,5.914374781095816,0.22384296154362468,168.68667091304397,0.012345823459327221,-0.10550060123205185,-0.9954367876052856,-0.09561466425657272,-0.0017125438898801804,0.004622570239007473
2024-05-13 17:16:18.354452,5.807005061116861,0.22445885250768943,168.67622072361385,0.011291120201349258,-0.10432480275630951,-0.9959279298782349,-0.09465935826301575,-0.0009027122287079692,0.0038750641979277134
2024-05-13 17:16:18.372008,5.696787579140835,0.22296218730581038,168.67765506333956,0.008494418114423752,-0.09676503390073776,-0.9957712888717651,-0.09421633183956146,-0.0024702574592083693,0.0024520992301404476
2024-05-13 17:16:18.396473,5.581859827958438,0.22069703244081235,168.69262683800022,0.009898800402879715,-0.08950309455394745,-0.9981979131698608,-0.09616295993328094,-0.004973174072802067,0.00026426801923662424
2024-05-13 17:16:18.414464,5.469066084004848,0.2158503195336007,168.69840517803806,0.007115166634321213,-0.09324529767036438,-0.995153546333313,-0.0978567823767662,-0.005254401359707117,0.0010129866423085332
2024-05-13 17:16:18.431512,5.3601313969323146,0.2102027802864183,168.69822759311964,0.0031879718881100416,-0.0978953093290329,-0.9943170547485352,-0.09724011272192001,-0.005019416566938162,0.0025182883255183697
2024-05-13 17:16:18.440738,5.251879728776783,0.20847921139783468,168.69881498938827,0.008773108012974262,-0.09616420418024063,-0.9990108013153076,-0.09583600610494614,-0.0032497176434844732,0.0023056084755808115
2024-05-13 17:16:18.474452,5.139833463650485,0.20700683872423414,168.71490691507282,0.011140822432935238,-0.08648760616779327,-0.9973143339157104,-0.0956563800573349,-0.003784271888434887,0.0032555479556322098
2024-05-13 17:16:18.494228,5.023734761912255,0.2023040933981217,168.73680450155186,0.009583513252437115,-0.08016517013311386,-0.9965040683746338,-0.09737902879714966,-0.005005980376154184,0.0028045696672052145
2024-05-13 17:16:18.516205,4.912488055805672,0.20067013072175482,168.73870329414112,0.010777079500257969,-0.08492723852396011,-0.9953174591064453,-0.09800995886325836,-0.00447369460016489,0.0035829448606818914
2024-05-13 17:16:18.533471,4.80379797488279,0.19993910037736512,168.735725331663,0.006298332009464502,-0.08585023880004883,-0.9961007237434387,-0.09583792835474014,-0.0017838807543739676,0.004547979682683945
2024-05-13 17:16:18.556636,4.690788653083521,0.20036219857993567,168.73804759598082,0.007623502053320408,-0.0820431262254715,-0.9993618130683899,-0.0974593386054039,-0.0010443332139402628,0.0036560148000717163
2024-05-13 17:16:18.576255,4.570771557195819,0.19860028991855005,168.75068344594533,0.009897567331790924,-0.0750468522310257,-0.9993005990982056,-0.10184143483638763,-0.0032531586475670338,-2.1079147700220346e-05
2024-05-13 17:16:18.594577,4.4511305485992905,0.19607706862875926,168.76943914540618,0.009734970517456532,-0.0727069228887558,-0.9953959584236145,-0.10206899791955948,-0.003950880840420723,0.00047571747563779354
2024-05-13 17:16:18.608503,4.335455745476423,0.19459338345434588,168.77826374981385,0.003936579450964928,-0.07731423527002335,-0.997733473777771,-0.10138434171676636,-0.0018882458098232746,0.0007673053187318146
2024-05-13 17:16:18.636333,4.220340164091852,0.19332689029141098,168.79229295836905,0.005133455153554678,-0.07477870583534241,-0.9975602626800537,-0.10066515952348709,-0.0018932977691292763,0.00045191339449957013
2024-05-13 17:16:18.654088,4.103061120287679,0.19354819108856203,168.80522933665705,0.00792574044317007,-0.07380012422800064,-1.0004161596298218,-0.10275373607873917,-0.001723764929920435,0.003057144582271576
2024-05-13 17:16:18.670172,3.9803828119446103,0.19285975604499234,168.82399869649626,0.010584816336631775,-0.06610048562288284,-0.9981750845909119,-0.1048191487789154,-0.0031573097221553326,0.0029357639141380787
2024-05-13 17:16:18.681547,3.858899786706294,0.19680028160820046,168.83410737646787,0.013901110738515854,-0.06847184151411057,-0.9955942034721375,-0.10639014095067978,-0.0011337620671838522,0.0033908614423125982
2024-05-13 17:16:18.713602,3.7401774385531326,0.19882712690418852,168.8479043585913,0.011826789937913418,-0.06514418125152588,-1.0002111196517944,-0.10369272530078888,-7.6186319347471e-05,0.0022782464511692524
2024-05-13 17:16:18.729542,3.6198653638706504,0.1979783825183219,168.86361379368233,0.006320488173514605,-0.06140485778450966,-0.9988360404968262,-0.1033521443605423,-0.0015707226702943444,0.0010868209647014737
2024-05-13 17:16:18.756452,3.4981279140857513,0.19624386131468244,168.88389945551725,0.009672197513282299,-0.057380739599466324,-1.000643014907837,-0.10490642488002777,-0.0030904761515557766,0.0007069529383443296
2024-05-13 17:16:18.773504,3.372456702225748,0.19388457790518515,168.9022043624929,0.007764763198792934,-0.058809470385313034,-0.9966420531272888,-0.10822855681180954,-0.002853349084034562,0.0021689024288207293
2024-05-13 17:16:18.798220,3.246789759233976,0.1930637012247407,168.91653409937157,0.00376412202604115,-0.057631850242614746,-0.998131513595581,-0.10866019129753113,-0.0016672692727297544,-0.0007307353080250323
2024-05-13 17:16:18.816361,3.1239564909741127,0.19377429436247326,168.935112213914,0.005711400415748358,-0.055814601480960846,-0.9993822574615479,-0.1078151986002922,-0.0006946732173673809,-0.0006418211269192398
2024-05-13 17:16:18.826742,2.996085531314542,0.19015762915567216,168.96392195183313,0.00872981920838356,-0.049402836710214615,-1.0023200511932373,-0.10815457999706268,-0.0037808751221746206,0.0005110680358484387
2024-05-13 17:16:18.857658,2.870581232202381,0.18930309511726687,168.98782761392818,0.011515428312122822,-0.048307809978723526,-0.9961671233177185,-0.10851429402828217,-0.004072711803019047,0.002720449585467577
2024-05-13 17:16:18.875862,2.7476134945932333,0.18633489767522032,169.01318127612726,0.006341597065329552,-0.04782680422067642,-0.9995335340499878,-0.1064901351928711,-0.002815595827996731,0.0027763277757912874
2024-05-13 17:16:18.887849,2.6250348643233647,0.18685976836446672,169.02367244669242,0.011818313039839268,-0.046250127255916595,-1.0003292560577393,-0.10754787921905518,-0.001970793353393674,0.0008903603302314878
2024-05-13 17:16:18.918067,2.4960836675578744,0.18582156627041155,169.0505970524006,0.009009056724607944,-0.0412343330681324,-1.0015605688095093,-0.11042122542858124,-0.0036125213373452425,0.0008637889404781163
2024-05-13 17:16:18.936382,2.3665403787687085,0.1826843349866204,169.0822754697711,0.009232095442712307,-0.03778807073831558,-1.0002574920654297,-0.11107678711414337,-0.005067697260528803,-0.0006452856468968093
2024-05-13 17:16:18.949778,2.2408732223335246,0.17915099275160817,169.1086809811024,0.004538301844149828,-0.039414167404174805,-0.9980096817016602,-0.11005522310733795,-0.003986039198935032,0.0009456743719056249
2024-05-13 17:16:18.977977,2.1154675340775055,0.17780296420545624,169.13683502086118,0.005455899517983198,-0.03805487975478172,-1.0006048679351807,-0.10914034396409988,-0.0021957815624773502,0.0015268318820744753
2024-05-13 17:16:18.994303,1.9882021133765388,0.17729091346111686,169.1626121547888,0.005304621998220682,-0.03552497550845146,-1.000372052192688,-0.11005301028490067,-0.0012118235463276505,-0.00010706050670705736
2024-05-13 17:16:19.014278,1.8590931819299035,0.18004485373859394,169.1991946479834,0.01222547609359026,-0.026164818555116653,-0.9983654618263245,-0.11013554036617279,-0.0006283898837864399,-0.0002864573907572776
2024-05-13 17:16:19.038095,1.734159843943673,0.18412687894345503,169.23249865037639,0.011658459901809692,-0.02820540964603424,-1.0001797676086426,-0.10850164294242859,0.0005204171175137162,0.0035081212408840656
2024-05-13 17:16:19.049504,1.6082846869039213,0.18475414910939872,169.25307118015644,0.008436891250312328,-0.03000366874039173,-1.0000720024108887,-0.11061610281467438,-0.0004419054603204131,0.0010502765653654933
2024-05-13 17:16:19.058872,1.477998401599105,0.1854012428321913,169.2731246155596,0.007253539748489857,-0.029587335884571075,-1.002963900566101,-0.11383144557476044,-7.614766946062446e-05,0.000960830133408308
2024-05-13 17:16:19.098395,1.3434868972406953,0.18546919787834765,169.3153351846303,0.00843613687902689,-0.017904900014400482,-1.0004860162734985,-0.11487047374248505,-0.0015354319475591183,-0.0005790275172330439
2024-05-13 17:16:19.106528,1.212194653137183,0.18601013018431414,169.35451314970948,0.007317273877561092,-0.016367966309189796,-1.0018723011016846,-0.111863873898983,-0.0014865167904645205,0.0013318669516593218
2024-05-13 17:16:19.119032,1.0857597407506077,0.1823317798315714,169.39102734101238,0.005243559833616018,-0.01933850161731243,-1.000452995300293,-0.11061684042215347,-0.0035410288255661726,0.0036359881050884724
2024-05-13 17:16:19.158130,0.9605325979083609,0.17995383346377558,169.4171050032635,0.005648829974234104,-0.022039560601115227,-0.9997266530990601,-0.11125999689102173,-0.0033770643640309572,0.002428163541480899
2024-05-13 17:16:19.181752,0.8342710015719745,0.1807270455623754,169.45247172278582,0.006985636427998543,-0.011678185313940048,-1.0005688667297363,-0.10924340784549713,-0.0012194119626656175,0.0003970878024119884
2024-05-13 17:16:19.194446,0.7056458396176464,0.18416907403787836,169.49801542417146,0.012686436995863914,-0.005857689771801233,-0.9996309280395508,-0.10957471281290054,-0.0012713484466075897,0.002707315608859062
2024-05-13 17:16:19.213705,0.5763580425921213,0.18425011583320616,169.5347481815278,0.009601317346096039,-0.00981169007718563,-1.0014350414276123,-0.11147188395261765,-0.002024454064667225,0.0028767315670847893
2024-05-13 17:16:19.220851,0.4495276729247727,0.18307242846969465,169.56320274961004,0.010268425568938255,-0.01289067231118679,-0.9997830390930176,-0.11280903965234756,-0.0026255485136061907,0.002410055138170719
2024-05-13 17:16:19.253700,0.32060248957506654,0.1820960049030737,169.6004546013433,0.007747204042971134,-0.0047136275097727776,-1.00186026096344,-0.1106826663017273,-0.0020127317402511835,-0.0013663633726537228
2024-05-13 17:16:19.275118,0.1913464422570114,0.18397557424508337,169.65132585028155,0.01139065995812416,0.005550560541450977,-1.0002849102020264,-0.10968869179487228,-0.0024949118960648775,-0.0008938309620134532
2024-05-13 17:16:19.296296,0.06522216340543273,0.18026261937924098,169.69553083458987,0.005958633963018656,0.0021556655410677195,-1.0007271766662598,-0.10962897539138794,-0.0029887743294239044,0.002931427676230669
2024-05-13 17:16:19.314417,-0.05730046464932698,0.17691481282972982,169.72230517613633,0.005829674657434225,-0.005815885961055756,-1.000287652015686,-0.10981010645627975,-0.002824660623446107,0.0037997919134795666
2024-05-13 17:16:19.338036,-0.18411245817296132,0.17711823774116248,169.7539972538852,0.005563222803175449,-0.0009506995556876063,-1.0001060962677002,-0.11144673824310303,-0.0011958025861531496,0.001986500807106495
2024-05-13 17:16:19.356295,-0.3171333938069347,0.18213892036901108,169.80844752194852,0.013056671246886253,0.011142433620989323,-0.9998034834861755,-0.11189930140972137,2.4602064513601363e-05,0.001177955069579184
2024-05-13 17:16:19.373915,-0.4495865299455112,0.1840752256378568,169.87330699830696,0.009006812237203121,0.017926190048456192,-1.0004451274871826,-0.11073281615972519,-0.0002470667823217809,0.0017787311226129532
2024-05-13 17:16:19.390030,-0.571974555248854,0.18477345239793194,169.91472526543393,0.009842123836278915,0.008597548119723797,-1.00076425075531,-0.10829675197601318,-0.0008564370218664408,0.0025725786108523607
2024-05-13 17:16:19.416219,-0.6946920304579443,0.18446632066890614,169.9504881359281,0.005253689829260111,0.00873161107301712,-1.001998782157898,-0.10877574980258942,-0.0007666966412216425,0.0010912090074270964
2024-05-13 17:16:19.434350,-0.8211833452660251,0.18490274574448617,169.99888685638683,0.010926198214292526,0.016553377732634544,-1.001567006111145,-0.10931824147701263,-0.0022008626256138086,-9.200289787258953e-05
2024-05-13 17:16:19.449281,-0.9520869622779343,0.18348616184258287,170.04906142602974,0.008733972907066345,0.020590627565979958,-1.000398874282837,-0.11206035315990448,-0.0032697657588869333,0.0006797469104640186
2024-05-13 17:16:19.476448,-1.0818284332747363,0.1801958649522747,170.0980885238921,0.007294055540114641,0.018476445227861404,-1.0001118183135986,-0.11195659637451172,-0.0035811038687825203,0.0020068418234586716
2024-05-13 17:16:19.493825,-1.2055986113896546,0.17915262025762135,170.135326715247,0.004158200230449438,0.01658538170158863,-0.9995486736297607,-0.10992466658353806,-0.0018456256948411465,0.0015587940579280257
2024-05-13 17:16:19.518447,-1.3328775857472557,0.1785212679864315,170.18738641710084,0.007991424761712551,0.026865074411034584,-1.000261902809143,-0.109649658203125,-0.0018343268893659115,-0.0005159411230124533
2024-05-13 17:16:19.536098,-1.461009373255756,0.18100285447075434,170.24439117591376,0.00922737829387188,0.030712708830833435,-0.998564600944519,-0.10884673148393631,-0.0009760663961060345,0.0010961310472339392
2024-05-13 17:16:19.546069,-1.5862512436934006,0.1818821879655406,170.29425155685485,0.007394600659608841,0.028989210724830627,-0.9999522566795349,-0.10803577303886414,-0.0007909045671112835,0.0006103978957980871
2024-05-13 17:16:19.577662,-1.7060104999399348,0.1840598043513714,170.3412295979662,0.008514946326613426,0.02746342122554779,-1.0001611709594727,-0.106072798371315,-0.0003748688905034214,0.0019402462057769299
2024-05-13 17:16:19.596622,-1.8266792385631385,0.18390180286596194,170.3961033377581,0.008915775455534458,0.0322735533118248,-1.0043970346450806,-0.10534843057394028,-0.0020491548348218203,0.0009977715089917183
2024-05-13 17:16:19.606115,-1.955085941185732,0.18337974696170556,170.45567624769893,0.012136843055486679,0.038550589233636856,-0.9985843896865845,-0.10775096714496613,-0.003754006465896964,0.0005306149832904339
2024-05-13 17:16:19.638443,-2.08039451268949,0.1821765797909387,170.5098942893305,0.005891577806323767,0.03706475347280502,-0.9991699457168579,-0.10809867084026337,-0.0012343599228188396,0.0011407567653805017
2024-05-13 17:16:19.650956,-2.199413760628136,0.1831428781357236,170.5597546702716,0.007048312574625015,0.03740604221820831,-0.9990814328193665,-0.10450152307748795,-0.0006325465510599315,0.00047948441351763904
2024-05-13 17:16:19.658880,-2.3198603046599025,0.18517307182523057,170.61378146660638,0.0077365972101688385,0.04121698811650276,-1.0019845962524414,-0.10367623716592789,-0.0004613070050254464,0.001872281078249216
2024-05-13 17:16:19.698444,-2.4412959454608516,0.18649908901956508,170.67993867890712,0.011698361486196518,0.047765325754880905,-0.9982495307922363,-0.10344667732715607,-0.0026003550738096237,0.0034731312189251184
2024-05-13 17:16:19.712736,-2.560906218206115,0.1876872484504564,170.74227098527268,0.009401804767549038,0.0457388199865818,-0.997867226600647,-0.10353973507881165,-0.0006479395087808371,0.004661689046770334
2024-05-13 17:16:19.734420,-2.676563305525822,0.1899808579902584,170.7999587630026,0.005534549243748188,0.04521898180246353,-0.9986821413040161,-0.10100405663251877,0.00020823933300562203,0.0026461246889084578
2024-05-13 17:16:19.758442,-2.7959144579694475,0.19129346827030413,170.85789242754265,0.006756986491382122,0.04735569283366203,-0.9995239973068237,-0.10442797094583511,0.0003459334257058799,0.002053910866379738
2024-05-13 17:16:19.775264,-2.9209263431311334,0.18947470362016344,170.92260163973936,0.006465020589530468,0.054956626147031784,-1.002868890762329,-0.10648523271083832,-0.0030564607586711645,0.003259841352701187
2024-05-13 17:16:19.794258,-3.04539074594216,0.1898500438593968,170.98431922907957,0.009623203426599503,0.05885661393404007,-0.9959822297096252,-0.10602235049009323,-0.002182421972975135,0.003068143269047141
2024-05-13 17:16:19.818433,-3.1637508806258996,0.1918040249107626,171.04386481826376,0.009091150015592575,0.05691125988960266,-0.9986423254013062,-0.10302460193634033,-0.00025167316198349,0.0017331226263195276
2024-05-13 17:16:19.827820,-3.2795806436655606,0.19327404970683593,171.09994067134957,0.0073536476120352745,0.056327689439058304,-0.9995231032371521,-0.10183259844779968,3.771952469833195e-05,0.0017535599181428552
2024-05-13 17:16:19.860034,-3.3958445506043407,0.1945763480020605,171.16261448717358,0.007305443752557039,0.059311967343091965,-0.9995937943458557,-0.10225638747215271,-0.0002715640002861619,0.0028568697161972523
2024-05-13 17:16:19.877841,-3.512013048338152,0.19374166420093059,171.23505547351076,0.009368011727929115,0.06543149799108505,-1.0000277757644653,-0.09954175353050232,-0.0025605412665754557,0.0025631317403167486
2024-05-13 17:16:19.888547,-3.6268530742783964,0.19543467066102105,171.30453215774813,0.008466931991279125,0.06662911921739578,-0.995834469795227,-0.09911027550697327,-0.0002159762370865792,0.0024681573268026114
2024-05-13 17:16:19.900105,-3.7391319927232973,0.1973695885476916,171.36148227504768,0.007930183783173561,0.06184423714876175,-0.9987329244613647,-0.09792228043079376,-8.292295387946069e-05,0.0030394326895475388
2024-05-13 17:16:19.938306,-3.8528909277839753,0.1977737703279124,171.42091858120514,0.008300482295453548,0.06380655616521835,-0.9981585741043091,-0.10023126006126404,-0.0010056128958240151,0.00381637760438025
2024-05-13 17:16:19.947583,-3.970947332493061,0.19720847879260128,171.4896849257688,0.006555646657943726,0.07270849496126175,-0.998062014579773,-0.10136633366346359,-0.0019473041174933314,0.0010339373257011175
2024-05-13 17:16:19.974268,-4.090513635895542,0.19766256631048812,171.56498093117904,0.012414413504302502,0.0793626606464386,-0.9979139566421509,-0.09960252791643143,-0.0033819267991930246,0.00013686728198081255
2024-05-13 17:16:19.994750,-4.204594016734034,0.19845788314239793,171.63333746439253,0.009502572938799858,0.0776420384645462,-0.995453953742981,-0.09829367697238922,-0.0013391886604949832,-0.00043146417010575533
2024-05-13 17:16:20.016271,-4.30949206200709,0.19717172650517278,171.68834780796783,0.008427761495113373,0.0692068561911583,-0.998733401298523,-0.09485817700624466,-0.0022727169562131166,0.001429254305548966
2024-05-13 17:16:20.034096,-4.418959930721707,0.1964464724731085,171.75453234102525,0.0061162193305790424,0.07722551375627518,-0.9977917671203613,-0.09441277384757996,-0.001035016030073166,0.00021653588919434696
2024-05-13 17:16:20.056393,-4.527293561147279,0.19786314975650438,171.83206864848322,0.006705297157168388,0.08502806723117828,-0.997073233127594,-0.09262238442897797,-0.0005524718435481191,0.0007542596431449056
2024-05-13 17:16:20.081527,-4.635338616080419,0.1959434797335473,171.90886729551084,0.007027320563793182,0.08612027019262314,-0.9989373683929443,-0.09110768139362335,-0.0030497126281261444,0.0012741833925247192
2024-05-13 17:16:20.093524,-4.738829215497629,0.1950192297408403,171.9676205827513,0.01040302962064743,0.07988908886909485,-0.9966718554496765,-0.09245653450489044,-0.0030451554339379072,0.003688621334731579
2024-05-13 17:16:20.109567,-4.847444164339641,0.19664586864014794,172.02302707729845,0.009123600088059902,0.07616626471281052,-0.9970222115516663,-0.0967123955488205,-0.0013974129687994719,0.005408801604062319
2024-05-13 17:16:20.136360,-4.962577674970784,0.1988134665258485,172.09661553541616,0.006027920637279749,0.08974693715572357,-0.9982805848121643,-0.0982423797249794,0.00044895923929288983,0.0021503660827875137
2024-05-13 17:16:20.154559,-5.078246928564949,0.20005860200741388,172.18613199467833,0.008692963048815727,0.09879357367753983,-0.9971381425857544,-0.0969451442360878,-0.000611091498285532,0.0014679718296974897
2024-05-13 17:16:20.168682,-5.187077028365818,0.19951983081598948,172.26817622698854,0.007188035640865564,0.09615588933229446,-0.9964554309844971,-0.0934559777379036,-0.001631354447454214,0.001503514125943184
