sTimestamp,sRoll,sPitch,sYaw,sAcc_x,sAcc_y,sAcc_z,sGyro_x,sGyro_y,sGyro_z
2024-05-13 17:24:00.318868,0.3847672876701497,0.06726957931021016,170.9318633762539,0.006050082854926586,-0.004227492958307266,-1.0008307695388794,0.0007629834581166506,-0.0017062744591385126,0.0007892161956988275
2024-05-13 17:24:00.332853,0.3837711739488121,0.06724252535779457,170.9306066214466,0.005688592791557312,-0.004156474024057388,-1.000916600227356,2.3039552615955472e-05,-0.0013432764681056142,0.002073329873383045
2024-05-13 17:24:00.351945,0.3837341148364795,0.06767215359473762,170.9279155269136,0.005936948582530022,-0.004111388232558966,-1.000786542892456,0.0003696968196891248,-0.0006900621810927987,0.0007238114485517144
2024-05-13 17:24:00.365770,0.3832057890320084,0.06798314731549138,170.92553862108247,0.005794068332761526,-0.004104713909327984,-1.0009101629257202,0.00044677237747237086,-0.0011976738460361958,0.001281070290133357
2024-05-13 17:24:00.393174,0.3830322061775549,0.06704761150239798,170.9230251114679,0.0058952821418643,-0.004247928038239479,-1.0006791353225708,0.0006304201669991016,-0.0024088036734610796,0.0011179550783708692
2024-05-13 17:24:00.408317,0.38338841655102696,0.06596872175801363,170.91719212991669,0.005920425057411194,-0.004074763506650925,-1.0011672973632812,0.0007486377726309001,-0.00271419994533062,0.0007701300783082843
2024-05-13 17:24:00.434892,0.3837159988269231,0.06532714421338862,170.91645446948633,0.005799476057291031,-0.004388517700135708,-1.0007994174957275,0.0007851419504731894,-0.001283555873669684,0.0011461821850389242
2024-05-13 17:24:00.453209,0.3841276511265486,0.0650528160686774,170.91041658226004,0.006052701734006405,-0.004081273451447487,-1.0006023645401,0.0010373537661507726,-0.002524232491850853,0.0008100615232251585
2024-05-13 17:24:00.462476,0.3844591287447058,0.0643571372893278,170.90690586502666,0.005894656293094158,-0.004402350168675184,-1.0008574724197388,0.0004199901013635099,-0.0021440107375383377,0.00028089125407859683
2024-05-13 17:24:00.494588,0.3839149814473526,0.06476305329726754,170.9084631481574,0.006220396142452955,-0.004186088684946299,-1.0002964735031128,0.000228641350986436,-0.0012107095681130886,0.0017972519854083657
2024-05-13 17:24:00.509985,0.38402810645548097,0.0648284937132314,170.9073976386469,0.006117477547377348,-0.004034719429910183,-1.0008559226989746,0.0012289866572245955,-0.0011668428778648376,0.0016967728734016418
2024-05-13 17:24:00.543086,0.38419320493432485,0.06475321489001581,170.8994199776963,0.006072338670492172,-0.0041231922805309296,-1.0002102851867676,0.0009585075895301998,-0.0014976516831666231,0.0006108606467023492
2024-05-13 17:24:00.555235,0.38492424861892777,0.06483909251263682,170.89168820355587,0.006046392023563385,-0.004227383062243462,-1.000718355178833,0.0015286934794858098,-0.0016982577508315444,0.00031288847094401717
2024-05-13 17:24:00.570384,0.38431182611030096,0.06394892676471375,170.887917939134,0.005905372556298971,-0.004220692440867424,-1.0004256963729858,0.0008305503288283944,-0.0018188089597970247,0.0013100847136229277
2024-05-13 17:24:00.597175,0.38366290477829684,0.06462815039105319,170.88349197655185,0.006103816442191601,-0.003853813512250781,-1.0003631114959717,0.0002815551124513149,-0.0019653968047350645,0.0011302786879241467
2024-05-13 17:24:00.615341,0.38319132824087504,0.0643913015753911,170.8812243537474,0.005849514622241259,-0.004394839517772198,-1.0007625818252563,0.0008621596498414874,-0.001338897505775094,0.0007428035023622215
2024-05-13 17:24:00.633310,0.3828860508014872,0.06441469363927706,170.8766481270035,0.005670050624758005,-0.004238484427332878,-1.0002042055130005,0.00032461422961205244,-0.001246327068656683,0.0004840363981202245
2024-05-13 17:24:00.657192,0.3833430865064963,0.06457212149551791,170.87696231570533,0.006009147502481937,-0.004322858992964029,-1.0009938478469849,0.0012916491832584143,-0.0021046316251158714,0.0009467246127314866
2024-05-13 17:24:00.666540,0.3829242304917305,0.0646753347252218,170.87294616447335,0.0059430901892483234,-0.004289176780730486,-1.000241756439209,0.00011918070958927274,-0.0012821347918361425,0.0011212691897526383
2024-05-13 17:24:00.679155,0.3833626165786543,0.06462976455685313,170.87056925864218,0.006284460891038179,-0.003961316775530577,-1.0009487867355347,0.0008170899236574769,-0.0017096155788749456,0.0011921129189431667
2024-05-13 17:24:00.717471,0.38287777986928917,0.06448336905694742,170.86824699432438,0.006226741708815098,-0.004352939780801535,-1.0004113912582397,0.0005025529535487294,-0.0023665656335651875,0.001106413546949625
2024-05-13 17:24:00.726043,0.3835526612562246,0.06428187180632544,170.86748201313733,0.006430226843804121,-0.00408590491861105,-1.0005604028701782,0.0012825081357732415,-0.0026670126244425774,0.0014050628524273634
2024-05-13 17:24:00.759117,0.38374969620552357,0.06415083089183904,170.86585642811488,0.0061617037281394005,-0.004461914300918579,-1.0005548000335693,0.0009177939500659704,-0.001321640214882791,0.0013537590857595205
2024-05-13 17:24:00.773047,0.3837907307013966,0.06448726439920845,170.86219544671977,0.006150537636131048,-0.004187293350696564,-1.0001529455184937,0.000845072790980339,-0.000756704481318593,0.0014197372365742922
2024-05-13 17:24:00.795182,0.38377920475717214,0.06409178043800884,170.85588435192668,0.006144402548670769,-0.004072424024343491,-1.0009392499923706,0.002015459816902876,-0.0013355129631236196,0.0007480413187295198
2024-05-13 17:24:00.813403,0.382933782084398,0.06366661450238877,170.85032457794227,0.005979056935757399,-0.004258712287992239,-1.0001475811004639,0.0002825511619448662,-0.002085308777168393,0.0021422896534204483
2024-05-13 17:24:00.834752,0.3829158795182531,0.06401704856353538,170.8466089550338,0.005961671005934477,-0.004195448011159897,-1.0001883506774902,0.0011356404284015298,-0.002018690574914217,0.001638737739995122
2024-05-13 17:24:00.855312,0.3831636606386512,0.0642617947854253,170.84219665282995,0.0057919807732105255,-0.004446385893970728,-1.000386357307434,0.00046023071627132595,-0.0006174164591357112,0.0015782329719513655
2024-05-13 17:24:00.872804,0.3828408007982359,0.06371882809694235,170.84324850196214,0.006038426887243986,-0.0040274495258927345,-1.0003396272659302,0.0007691712235100567,-0.0014046927681192756,0.0016481077764183283
2024-05-13 17:24:00.888875,0.3836057819852773,0.0643243136946934,170.83956019981034,0.005891229026019573,-0.004360311198979616,-1.0007247924804688,0.001412588288076222,-0.0010088304989039898,0.00139513798058033
2024-05-13 17:24:00.915199,0.38250628161146394,0.064161042825061,170.83645929392713,0.005855649244040251,-0.0041986554861068726,-1.0003464221954346,0.0006996807642281055,-0.0014856095658615232,0.0014227204956114292
2024-05-13 17:24:00.933332,0.38222426950393645,0.06401981665777909,170.83625438825206,0.005758334882557392,-0.003975750878453255,-1.0006920099258423,0.0004761291202157736,-0.00180734449531883,0.0012209939304739237
2024-05-13 17:24:00.948693,0.3815734538616547,0.06375550034309149,170.83662321846722,0.005780787672847509,-0.003967693541198969,-1.0005494356155396,-7.030992856016383e-05,-0.0015382549026980996,-1.1634736438281834e-05
2024-05-13 17:24:00.975348,0.3811659637085547,0.06388726162909192,170.8354211051733,0.006078592035919428,-0.0041217501275241375,-1.00084388256073,0.0008323849178850651,-0.002233808161690831,0.000668575637973845
2024-05-13 17:24:00.992677,0.38089409016307646,0.06337841920603257,170.83216993512838,0.0057397447526454926,-0.004240881651639938,-1.0010240077972412,0.0005793657619506121,-0.0020694592967629433,0.000940058205742389
2024-05-13 17:24:01.008253,0.38130542229758463,0.06366407319176985,170.82693801022415,0.006116246804594994,-0.004211952444165945,-1.0008528232574463,0.0013776342384517193,-0.0016652368940412998,0.00040866827475838363
2024-05-13 17:24:01.035363,0.38159581205901594,0.06387716975778895,170.82128261359136,0.006094777956604958,-0.004085036925971508,-1.0013697147369385,0.0002838798682205379,-0.0017088139429688454,0.0019454865250736475
2024-05-13 17:24:01.052645,0.382270373280834,0.0636618720565881,170.81372842436934,0.006191744469106197,-0.004031733144074678,-1.0006531476974487,0.0020276647992432117,-0.0013950120192021132,-0.0006357043166644871
2024-05-13 17:24:01.077334,0.3826565457732042,0.06434411057111586,170.81046359394608,0.005960116628557444,-0.004140221048146486,-1.0013092756271362,0.0010765535989776254,-0.002128893043845892,0.000841035507619381
2024-05-13 17:24:01.095408,0.383338337390589,0.0642043918479281,170.81081876378292,0.00589306466281414,-0.004379831720143557,-1.0002226829528809,0.001009571016766131,-0.0017406865954399109,0.0009243084932677448
2024-05-13 17:24:01.105156,0.38366295813914975,0.06418988436604843,170.80713046163112,0.006141929887235165,-0.003950666170567274,-1.0009713172912598,0.00031740832491777837,-0.0014155902899801731,0.0014677371364086866
2024-05-13 17:24:01.136988,0.38442817945002916,0.0638595540062284,170.80151604613337,0.005989728029817343,-0.004202423617243767,-1.0007444620132446,0.0009539311868138611,-0.0017888953443616629,0.0016990727744996548
2024-05-13 17:24:01.154952,0.38511904241240535,0.06386847860887437,170.80264985753558,0.0061033652164042,-0.0041691637597978115,-1.000564694404602,0.0013758413260802627,-0.0021049820352345705,0.0017830245196819305
2024-05-13 17:24:01.165408,0.3853336330823054,0.06282657460564993,170.8037836689378,0.006081025116145611,-0.004036293365061283,-1.0007389783859253,0.001142109977081418,-0.0022924880031496286,0.0026725123170763254
2024-05-13 17:24:01.196701,0.38543493866151846,0.06226447805140564,170.80486283882666,0.006143472623080015,-0.004148016218096018,-1.0001821517944336,0.0008658192818984389,-0.0013463356299325824,0.002304996829479933
2024-05-13 17:24:01.210769,0.38496136109211326,0.06255842964976742,170.80416615953132,0.006201541051268578,-0.004257255233824253,-1.0010900497436523,0.0007698967820033431,-0.001523006591014564,0.001195594435557723
2024-05-13 17:24:01.257337,0.3853186386826431,0.06295838925250324,170.80101061213477,0.0061010862700641155,-0.004130656830966473,-1.0009098052978516,0.0015126427169889212,-0.0012013113591820002,0.0010740465950220823
2024-05-13 17:24:01.272108,0.38554379480141554,0.06271236237014394,170.7978414043599,0.0060232351534068584,-0.004311347380280495,-1.000449538230896,0.0008596227853558958,-0.0013713730731979012,0.0013955633621662855
2024-05-13 17:24:01.293219,0.3858540348001222,0.06364895873018855,170.78707702622796,0.006074399221688509,-0.004164293874055147,-1.000867247581482,0.0008031795150600374,-0.0001814733841456473,0.0008106103632599115
2024-05-13 17:24:01.317339,0.38603375415265817,0.06390959314602668,170.78580661104232,0.006286659277975559,-0.004015239886939526,-1.0006041526794434,0.0011120120761916041,-0.001574353314936161,0.0008247274672612548
2024-05-13 17:24:01.334484,0.38588927964345654,0.06375572045660967,170.78304721461765,0.005797159392386675,-0.004000572487711906,-1.0008820295333862,0.001148433773778379,-0.0017829866847023368,0.0019199649104848504
2024-05-13 17:24:01.353188,0.3861518684005318,0.0631775756258585,170.7819134032154,0.006040386855602264,-0.00405185716226697,-1.000868320465088,0.001269040978513658,-0.0021150154061615467,0.0018105279887095094
2024-05-13 17:24:01.377390,0.3865809430186261,0.06283547252786946,170.78397612034476,0.005933611653745174,-0.004196684341877699,-1.0012305974960327,0.0014369465643540025,-0.0013126720441505313,0.0020330497063696384
2024-05-13 17:24:01.387111,0.38716220278916474,0.062954960817705,170.78368925239963,0.005979906301945448,-0.004450812470167875,-1.0011706352233887,0.000676838681101799,-0.0010150210000574589,0.0017278892919421196
2024-05-13 17:24:01.413330,0.387228476968455,0.0631496945802231,170.7833750636978,0.006028691306710243,-0.00407751789316535,-1.0011942386627197,0.000314646284095943,-0.0012591377599164844,0.0013165050186216831
2024-05-13 17:24:01.443203,0.38744693630018967,0.0635904018642476,170.78252812024073,0.005718339700251818,-0.004116916563361883,-1.0012235641479492,0.00040660041850060225,-0.0010537870693951845,0.001300319447182119
2024-05-13 17:24:01.455290,0.3874942140158509,0.0643699572342348,170.77976872381603,0.006013937760144472,-0.004046992398798466,-1.0008950233459473,0.00012395583325996995,-0.0012080175802111626,0.0007761992164887488
2024-05-13 17:24:01.473269,0.3876019228974108,0.06333110146973173,170.7772552142015,0.005788860376924276,-0.0042404732666909695,-1.0014933347702026,0.0007835821597836912,-0.0018994867568835616,0.0018890871433541179
2024-05-13 17:24:01.490964,0.3870829352421956,0.06336695329276767,170.77423627058832,0.005724058020859957,-0.0040198746137320995,-1.0004955530166626,0.000940840516705066,-0.002257111482322216,0.00085426279110834
2024-05-13 17:24:01.515285,0.3869413155386236,0.0638931379930165,170.7714632137853,0.0058572301641106606,-0.004095086362212896,-1.0015279054641724,0.0004904289962723851,-0.0024448323529213667,0.0024186016526073217
2024-05-13 17:24:01.531110,0.3865649614431853,0.06398928090971237,170.76623128888107,0.005666171200573444,-0.004201207775622606,-1.0001360177993774,0.001014166628010571,-0.001590030500665307,0.0008565080934204161
2024-05-13 17:24:01.556566,0.38678630226097604,0.0637185679627845,170.75752962787848,0.005956610664725304,-0.004096532706171274,-1.0010753870010376,0.0010785551276057959,-0.0012932044919580221,0.0017918350640684366
2024-05-13 17:24:01.575210,0.386847880685212,0.0636433425004218,170.7547429106971,0.005621527321636677,-0.004307145718485117,-1.0003600120544434,0.0011374983005225658,-0.0017265864880755544,0.0006110814865678549
2024-05-13 17:24:01.585563,0.38698109605445363,0.06392447415387659,170.75442872199528,0.005791652016341686,-0.004226461984217167,-1.0008057355880737,0.0007977403583936393,-0.0011629643850028515,0.0006496751448139548
2024-05-13 17:24:01.616447,0.38722578224538406,0.06445539462981946,170.75594502399105,0.0057373978197574615,-0.004351511597633362,-1.0007847547531128,0.00012192614667583257,-0.0012409371556714177,0.001808173954486847
2024-05-13 17:24:01.634519,0.3871521175879684,0.06452065495290482,170.75646411836794,0.0059889499098062515,-0.0041910395957529545,-1.0004867315292358,0.000982085824944079,-0.0007282786536961794,0.002070388291031122
2024-05-13 17:24:01.646989,0.3881935346734102,0.06512121134187009,170.75390962761838,0.006188295315951109,-0.003988048527389765,-1.001114010810852,0.0008927791495807469,-0.0009819271508604288,0.0016644633142277598
2024-05-13 17:24:01.676659,0.3877696360580463,0.06528007327103238,170.75054917454673,0.005893171764910221,-0.004405000247061253,-1.0006862878799438,0.0009161714697256684,-0.0019684042781591415,0.0008545871241949499
2024-05-13 17:24:01.695333,0.3878890309663893,0.06555532189045597,170.7475029101769,0.006240556947886944,-0.0043227942660450935,-1.0008107423782349,0.00039862070116214454,-0.0014957517851144075,0.0008277571760118008
2024-05-13 17:24:01.709462,0.3880567174465984,0.06553765277804252,170.74392389105182,0.006213626824319363,-0.004208491649478674,-1.0005760192871094,0.0014609460486099124,-0.0015531231183558702,0.00025487045058980584
2024-05-13 17:24:01.736462,0.38808326447091157,0.06583909490612884,170.74134207954555,0.006121818907558918,-0.004375750664621592,-1.0008418560028076,0.0014064798597246408,-0.0011381603544577956,0.001050876104272902
2024-05-13 17:24:01.755253,0.3876046443009082,0.06664941947791417,170.7421753626243,0.005958925932645798,-0.004192354157567024,-1.000670313835144,0.0012576986337080598,-0.0013675964437425137,0.0014943593414500356
2024-05-13 17:24:01.772005,0.3875528842736042,0.06603189433772964,170.73915641901115,0.005795081611722708,-0.004464270547032356,-1.0007822513580322,0.0007194163044914603,-0.0021883544977754354,0.0015194530133157969
2024-05-13 17:24:01.796684,0.3869185037740128,0.06662006433871766,170.73355566389174,0.00607661297544837,-0.0039819106459617615,-1.0003752708435059,0.0011117678368464112,0.00010335590923205018,0.0016554275061935186
2024-05-13 17:24:01.815267,0.38652728868104447,0.06624573795568922,170.73591890934455,0.005792456213384867,-0.0041891904547810555,-1.0009748935699463,0.0006089585367590189,-0.0005163741298019886,0.0021402505226433277
2024-05-13 17:24:01.825744,0.3861632075817711,0.06568481534020854,170.73768109815043,0.006029307376593351,-0.004212852101773024,-1.0004996061325073,0.00021322046814020723,-0.0014901505783200264,0.0020625446923077106
2024-05-13 17:24:01.856514,0.38644425919394654,0.06619609902228762,170.74095958895202,0.005953717976808548,-0.004214129410684109,-1.0005228519439697,0.0006750910542905331,-0.0018868508050218225,0.0007017588359303772
2024-05-13 17:24:01.874699,0.3866717365098197,0.06617134625665294,170.742967664568,0.0058175441808998585,-0.00434421980753541,-1.0007816553115845,0.0009587673703208566,-0.001548626460134983,0.000734616769477725
2024-05-13 17:24:01.884699,0.3863257981005291,0.0656368039128201,170.74494841942732,0.006019380874931812,-0.0041696447879076,-1.0003141164779663,0.0012043592287227511,-0.0016917944885790348,-0.00017514378123451024
2024-05-13 17:24:01.917273,0.38581593515115825,0.06607250194677948,170.7478444196354,0.005956502631306648,-0.004342581145465374,-1.001272439956665,0.0012592205312103033,-0.0016873290296643972,0.001405341550707817
2024-05-13 17:24:01.935220,0.3855112446811522,0.06599336113183593,170.7525845709194,0.005946566816419363,-0.0040926639921963215,-1.0001271963119507,0.0014066891744732857,-0.0014386079274117947,0.0014442751416936517
2024-05-13 17:24:01.945818,0.38631907463306486,0.06620637098646909,170.75411453329346,0.005972187500447035,-0.0044073075987398624,-1.0009350776672363,0.0008725873776711524,-0.0011742168571799994,0.0017743284115567803
2024-05-13 17:24:01.977310,0.38615925887865715,0.0666118000766262,170.75714713728496,0.006034381687641144,-0.004179889801889658,-1.0006662607192993,0.0007768428768031299,-0.0011819431092590094,0.0012112919939681888
2024-05-13 17:24:01.991761,0.38594616231263806,0.06674992464433384,170.75471558994045,0.006067805923521519,-0.004182035569101572,-1.0009222030639648,0.0005111873615533113,-0.0010021742200478911,0.001867678016424179
2024-05-13 17:24:02.013201,0.38562522346292677,0.0655572895719063,170.75412819367182,0.0060368748381733894,-0.004154291469603777,-1.000700831413269,-0.00019709473417606205,-0.002584993839263916,0.0016906893579289317
2024-05-13 17:24:02.037375,0.3858903468605143,0.06606966715146965,170.7537183823216,0.006186614278703928,-0.004089091904461384,-1.0007559061050415,0.0006126522202976048,-0.0018610770348459482,0.001068936544470489
2024-05-13 17:24:02.053599,0.3854047897796352,0.0660928057513044,170.752447967136,0.005954115651547909,-0.004183466080576181,-1.0009844303131104,0.00010586024291114882,-0.000862229848280549,0.001491627423092723
2024-05-13 17:24:02.073214,0.38494305831957176,0.06612937794585438,170.75300804264793,0.006246932782232761,-0.00432781083509326,-1.000868558883667,6.327206938294694e-05,-0.0015952957328408957,0.00023221256560645998
2024-05-13 17:24:02.097340,0.3844120111116033,0.06548121033589736,170.75369106156492,0.006032807752490044,-0.004023837856948376,-1.0007357597351074,0.0010143487015739083,-0.0015192552236840129,0.000834869802929461
2024-05-13 17:24:02.115879,0.3851789132893488,0.06533848339462789,170.75418283518516,0.006051122676581144,-0.004010726697742939,-1.0007244348526,0.0005426343996077776,-0.0017922479892149568,0.001380259869620204
2024-05-13 17:24:02.133334,0.3851953484320391,0.06582780908574246,170.7566417032864,0.005892984103411436,-0.004026421811431646,-1.0011574029922485,0.0015212565194815397,-0.0018656242173165083,0.0013392934342846274
2024-05-13 17:24:02.154074,0.3853558845579608,0.06563643038684987,170.76073981678837,0.006022683344781399,-0.004103056155145168,-1.0007268190383911,0.0012994993012398481,-0.0019610216841101646,0.002647038549184799
2024-05-13 17:24:02.160275,0.38539659888871647,0.06607719770183386,170.76211951500073,0.006146751809865236,-0.0037291268818080425,-1.000792384147644,0.0007630062755197287,-0.0018025182653218508,0.0016324212774634361
2024-05-13 17:24:02.193250,0.3854313634843748,0.06657608832582908,170.76291181694444,0.0058701722882688046,-0.004387206397950649,-1.0009896755218506,0.00089510518591851,-0.0013694829540327191,0.0013637285446748137
2024-05-13 17:24:02.209508,0.38532095987974385,0.06645105050729289,170.76076713754506,0.006066047120839357,-0.004285059403628111,-1.0009434223175049,0.0012484148610383272,-0.0018869773484766483,0.000914255331736058
2024-05-13 17:24:02.235289,0.38515620824644375,0.06691897182629165,170.76209219424405,0.005970466416329145,-0.004080054350197315,-1.0009732246398926,0.0015888700727373362,-0.0016142739914357662,0.001158843282610178
2024-05-13 17:24:02.253330,0.38506816283917406,0.06628500487331018,170.7657941567742,0.005912751890718937,-0.004259863402694464,-1.0007448196411133,0.0009706231066957116,-0.0013372586108744144,0.001151550910435617
2024-05-13 17:24:02.272154,0.3846136084138244,0.06559578942726697,170.7665454775829,0.005831100046634674,-0.004015413578599691,-1.001103162765503,0.0008174373651854694,-0.0013095939066261053,0.0013786068884655833
2024-05-13 17:24:02.295220,0.38466838332931674,0.06476564796873936,170.7638543830499,0.005916100926697254,-0.004402456805109978,-1.0006756782531738,0.000699543219525367,-0.0017586303874850273,0.0016091734869405627
2024-05-13 17:24:02.313417,0.38474783763927106,0.06490708090932622,170.76229709991915,0.006137337069958448,-0.0041488404385745525,-1.0007920265197754,0.0007171748438850045,-0.001455745194107294,0.0009662374504841864
2024-05-13 17:24:02.334477,0.38485194466326084,0.06456979362831056,170.76362215661814,0.005768786184489727,-0.00437528919428587,-1.0007601976394653,0.0012219626223668456,-0.0022145966067910194,0.001663505332544446
2024-05-13 17:24:02.354307,0.38467766811771975,0.06383684896332341,170.76304842072784,0.006066175177693367,-0.004273678176105022,-1.000339150428772,0.0005183705943636596,-0.002266295487061143,0.0002614929690025747
2024-05-13 17:24:02.372299,0.38379956192255,0.06403769254349748,170.76512479823555,0.006024468690156937,-0.00399034982547164,-1.0012911558151245,0.00038839178159832954,-0.0010074891615658998,0.0008458324009552598
2024-05-13 17:24:02.415329,0.3838880875774957,0.06430751169613942,170.7679524965519,0.0061945668421685696,-0.004057461395859718,-1.001051902770996,0.001353708328679204,-0.001585755730047822,0.0020469389855861664
2024-05-13 17:24:02.428751,0.38450435206753064,0.06397581396446407,170.76874479849565,0.00636661984026432,-0.004109505098313093,-0.9999126195907593,0.001520044170320034,-0.0020714730489999056,0.0019510715501382947
2024-05-13 17:24:02.456459,0.3799033392074544,0.07271887631879691,170.7618053262989,0.0012846444733440876,-0.014556419104337692,-1.1021368503570557,-0.0043347240425646305,0.010158160701394081,0.0012867097975686193
2024-05-13 17:24:02.475331,0.38107629079527183,0.084510424188457,170.77297951578106,0.0057688686065375805,-0.003989377059042454,-1.0256589651107788,0.0005369157297536731,0.008559400215744972,0.0007542690727859735
2024-05-13 17:24:02.491148,0.3832179286260411,0.10101847781416876,170.78315649764437,0.0056536137126386166,-0.0033228849060833454,-1.0143887996673584,0.0032886203844100237,0.013144399970769882,0.0025060060434043407
2024-05-13 17:24:02.516378,0.38733586568489764,0.11305874728925913,170.80144774424167,0.01312602125108242,-0.00046640553046017885,-1.0064637660980225,0.006178378593176603,0.006770748179405928,0.0006627155235037208
2024-05-13 17:24:02.535303,0.3834018101251025,0.12292698325775239,170.80693921633434,0.005116162821650505,-0.00037619087379425764,-0.9987024664878845,-0.00017201260197907686,0.009817035868763924,0.0016554688336327672
2024-05-13 17:24:02.544828,0.3903403485069099,0.13352100686683885,170.7898227622743,0.005721911322325468,-0.010275215841829777,-1.0029464960098267,0.003412360092625022,0.0077309375628829,0.0007257548859342933
2024-05-13 17:24:02.576935,0.38952648877862056,0.14188146523583858,170.7908882717848,0.0039877514354884624,-0.0017943544080480933,-0.9960526823997498,0.0018349012825638056,0.008159349672496319,0.0006997253512963653
2024-05-13 17:24:02.595324,0.39045811590923973,0.15929543273118277,170.78076593143487,0.010099911130964756,-0.005506562069058418,-1.0032415390014648,0.001796729862689972,0.010552997700870037,0.0011387852719053626
2024-05-13 17:24:02.604507,0.39072476009113466,0.1721058127052987,170.78116208240672,0.005521960556507111,-0.004887228831648827,-1.0016865730285645,0.0017084453720599413,0.01060070563107729,0.0006214132299646735
2024-05-13 17:24:02.637114,0.3965355968883759,0.183238033876641,170.77587551598913,0.01108891423791647,-0.005904706194996834,-0.999601423740387,0.004185548517853022,0.006067025009542704,-0.0005242713959887624
2024-05-13 17:24:02.654989,0.3945601514339348,0.19019215362749245,170.7868857809312,0.010729256086051464,-0.002272621728479862,-1.0020283460617065,0.0017110537737607956,0.004627582151442766,0.002271301345899701
2024-05-13 17:24:02.664588,0.3940382556122371,0.1988897992259087,170.80976691465074,0.004355992656201124,0.0008333526784554124,-0.9999738335609436,0.0023656662087887526,0.006811799481511116,0.0004595569334924221
2024-05-13 17:24:02.697328,0.3943206946065877,0.2085479668567844,170.81383770739606,0.0056329285725951195,-0.0040715038776397705,-1.0055147409439087,0.0003891891101375222,0.007555755786597729,-8.293678547488526e-06
2024-05-13 17:24:02.710547,0.3991587096947781,0.2183861740053134,170.817088877441,0.00954064168035984,-0.005384212359786034,-0.9937934279441833,0.0037264840211719275,0.006028249394148588,0.0023572989739477634
2024-05-13 17:24:02.719665,0.4009000610875876,0.2259561313593767,170.81833197186992,0.01036783866584301,-0.0029024251271039248,-1.0027788877487183,0.003269073087722063,0.004590613767504692,0.002757068257778883
2024-05-13 17:24:02.757325,0.40517298474366525,0.23646421731488265,170.81301808469567,0.009560364298522472,-0.005580715835094452,-0.9977278709411621,0.004887131974101067,0.007402301300317049,0.0006382541032508016
2024-05-13 17:24:02.774585,0.4105011726265099,0.2505059389900917,170.80475355579995,0.011261925101280212,-0.007776379585266113,-1.0068005323410034,0.004171412438154221,0.009328870102763176,-0.001223909086547792
2024-05-13 17:24:02.793413,0.41510674783950835,0.2550183194735165,170.80617423514732,0.006352391093969345,-0.00537705747410655,-0.9974472522735596,0.004273511003702879,0.00539623387157917,-0.0010750449728220701
2024-05-13 17:24:02.803478,0.41842800736470637,0.2653035705073508,170.8265418592523,0.006257887464016676,-0.0007080606301315129,-1.00345778465271,0.005230769980698824,0.007715725805610418,0.001326714176684618
2024-05-13 17:24:02.834790,0.42095309628434835,0.27938269814043626,170.8366778599806,0.009017584845423698,-0.004104736726731062,-1.0035713911056519,0.0030002316925674677,0.009313483722507954,0.0022130331490188837
2024-05-13 17:24:02.850403,0.4225359659440724,0.29059978974830125,170.8392733318652,0.011492444202303886,-0.00639888271689415,-1.0031424760818481,0.002874040510505438,0.007482331246137619,-0.0003751858603209257
2024-05-13 17:24:02.877198,0.4273466869560092,0.29947399306871963,170.8302301614041,0.008535027503967285,-0.0075097163207829,-0.9972515106201172,0.0030346813146024942,0.006659874692559242,0.0013208568561822176
2024-05-13 17:24:02.895200,0.42852991050800815,0.31126740856823093,170.83335838804396,0.009439244866371155,-0.004478313494473696,-0.9996122121810913,0.0017867512069642544,0.008618749678134918,0.0007218200480565429
2024-05-13 17:24:02.898449,0.42943114863290605,0.3274129352295097,170.83445121831116,0.010452351532876492,-0.005389919970184565,-1.0012669563293457,0.0017035698983818293,0.011698679998517036,0.0005467304727062583
2024-05-13 17:24:02.937245,0.432807636640846,0.340588530221023,170.8394782375403,0.013236179016530514,-0.005271348636597395,-1.001829981803894,0.0034283834975212812,0.00910160131752491,0.00020604136807378381
2024-05-13 17:24:02.945725,0.43448933060012357,0.34949571054852785,170.8529337102052,0.01274773757904768,-0.0035802957136183977,-1.0025702714920044,0.002084177453070879,0.006620809435844421,0.0005011798930354416
2024-05-13 17:24:02.959538,0.4340576946610905,0.3600801558845204,170.87846495732273,0.010575752705335617,0.000631877570413053,-1.0028438568115234,0.002681226236745715,0.008798928931355476,0.0016309310449287295
2024-05-13 17:24:02.997065,0.4361605391518082,0.3720534241386999,170.8869480522719,0.009731734171509743,-0.004875656682997942,-1.0085241794586182,0.0016261284472420812,0.008360559120774269,0.00023883668472990394
2024-05-13 17:24:03.006323,0.4370606300183689,0.3783993102078764,170.88663386357007,0.0114775775000453,-0.0071760122664272785,-1.005825400352478,0.0016489762347191572,0.005433754995465279,7.151319005060941e-05
2024-05-13 17:24:03.033326,0.4364422310942183,0.3834048516937173,170.8841886558472,0.01094017643481493,-0.006293277256190777,-1.0017881393432617,0.00119071826338768,0.003922281786799431,-0.00029237198759801686
2024-05-13 17:24:03.054015,0.4384008411995724,0.3965797796745694,170.87690767419195,0.012081210501492023,-0.007137092296034098,-1.0039148330688477,0.0013165631098672748,0.008875967934727669,-0.000758337031584233
2024-05-13 17:24:03.075200,0.4426721106692104,0.4119994653344021,170.87510450425108,0.01450423151254654,-0.006971227005124092,-1.0052165985107422,0.004408261273056269,0.01007981039583683,-0.0011054190108552575
2024-05-13 17:24:03.092803,0.44607941456969474,0.42010276441310823,170.88349197655185,0.013911359943449497,-0.004319431260228157,-1.0015430450439453,0.0047042700462043285,0.006450213957577944,0.0008628213545307517
2024-05-13 17:24:03.115751,0.4466095012823112,0.4289692570902839,170.90538956303092,0.010822833515703678,-0.0010498216142877936,-1.0070353746414185,0.0035651992075145245,0.007926052436232567,0.0008581040310673416
2024-05-13 17:24:03.135179,0.45023347692595833,0.4443439328707033,170.91379069571002,0.008861773647367954,-0.005756525322794914,-1.009973168373108,0.0036647890228778124,0.012556051835417747,-0.0013061333447694778
2024-05-13 17:24:03.152971,0.45342968529240696,0.4573927958366011,170.91056684642177,0.011936374008655548,-0.00934771541506052,-1.003665566444397,0.0034657318610697985,0.009662918746471405,-0.0005997038679197431
2024-05-13 17:24:03.169000,0.4560389242770576,0.46832851566717326,170.9058266951378,0.014316854067146778,-0.007599004544317722,-1.0019748210906982,0.0015130629763007164,0.008568317629396915,-0.0003792382194660604
2024-05-13 17:24:03.195323,0.4576899624263495,0.48299474608418896,170.91014337469323,0.01423684973269701,-0.003307489911094308,-1.0076361894607544,0.003603168297559023,0.010400268249213696,-0.0025396107230335474
2024-05-13 17:24:03.212478,0.4600073709065408,0.4994173489741028,170.92130390379705,0.01566733978688717,-0.0030011197086423635,-1.0019140243530273,0.0034522907808423042,0.011002026498317719,-0.00023867402342148125
2024-05-13 17:24:03.240992,0.46041766250441757,0.5087067797712904,170.93910337677409,0.014787071384489536,-0.003137683030217886,-1.0055557489395142,0.002320842817425728,0.007129005156457424,0.0007186479633674026
2024-05-13 17:24:03.255323,0.45902980008158273,0.514544296994977,170.95307794381594,0.012651299126446247,-0.0030941779259592295,-1.0081382989883423,0.0005665547214448452,0.005192209035158157,-0.0004100142396055162
2024-05-13 17:24:03.272425,0.45946180954658605,0.5212891621612175,170.95481281186514,0.012906561605632305,-0.006484108977019787,-1.0004037618637085,0.0009848835179582238,0.005193711258471012,-0.0016195712378248572
2024-05-13 17:24:03.296646,0.4626955839534697,0.5326226337892371,170.93287424425105,0.01643599197268486,-0.011681389063596725,-1.0045709609985352,0.0010405485518276691,0.006671155337244272,-0.0011962509015575051
2024-05-13 17:24:03.314635,0.4626979318309969,0.54049725493288,170.94030549006803,0.013351286761462688,-0.0050328574143350124,-1.005744218826294,0.0005477005033753812,0.006970361806452274,-0.0004017995670437813
2024-05-13 17:24:03.327113,0.4646454428789497,0.5527562171934365,170.95968956693252,0.014711891300976276,-0.002960319397971034,-1.0044503211975098,0.0019059808691963553,0.00912400335073471,0.0005068773170933127
2024-05-13 17:24:03.356967,0.4651318270530486,0.5650150193714342,170.9785272286634,0.011322393082082272,-0.003034676192328334,-1.0105372667312622,0.002127912826836109,0.009349348023533821,-0.00011509540490806103
2024-05-13 17:24:03.375249,0.46754203005641687,0.5759751251117774,170.97758466255794,0.012338584288954735,-0.00873974896967411,-1.001361608505249,0.0020647947676479816,0.008079840801656246,-0.0008558916160836816
2024-05-13 17:24:03.385270,0.47214419017483034,0.5920349275628872,170.96988020917416,0.016774289309978485,-0.010792667046189308,-1.0030571222305298,0.0025160342920571566,0.010960191488265991,-0.0008301998022943735
2024-05-13 17:24:03.416796,0.47432734274914856,0.6066189822664512,170.9796473796873,0.01668902486562729,-0.004692771006375551,-1.0060616731643677,0.00333998491987586,0.010196524672210217,-0.0003542027552612126
2024-05-13 17:24:03.435197,0.47302837950722965,0.6197881205947647,171.00560209853333,0.018328377977013588,0.0006381462444551289,-1.0013082027435303,0.002306787297129631,0.007866738364100456,-0.0003953426203224808
2024-05-13 17:24:03.446266,0.4738167327478372,0.6272300919431696,171.03088745884074,0.01551920734345913,-0.0010562046663835645,-1.0103245973587036,0.003014068119227886,0.005051777232438326,0.001285984762944281
2024-05-13 17:24:03.477305,0.47542801706172555,0.6290616498577909,171.02704889252718,0.014588309451937675,-0.010869057849049568,-1.0000685453414917,0.0008800197392702103,0.001950738369487226,-0.0013739161659032106
2024-05-13 17:24:03.491291,0.47789633003389176,0.6369249051397681,171.02173500535292,0.01311973575502634,-0.009326815605163574,-1.0067424774169922,0.001820818753913045,0.005555042997002602,-0.0011178915156051517
2024-05-13 17:24:03.513166,0.4796882408348152,0.6468255845068188,171.0324857231065,0.016242429614067078,-0.006634315941482782,-1.0022523403167725,0.0018162820488214493,0.006571963429450989,-3.092436236329377e-05
2024-05-13 17:24:03.537262,0.4767774063096262,0.6596201296478394,171.05020323381353,0.015952222049236298,-0.0014347289688885212,-1.0074251890182495,0.0011140210554003716,0.009165139868855476,-0.0015822412678971887
2024-05-13 17:24:03.553236,0.47960286347019004,0.6716122342830894,171.05588595120298,0.014588533900678158,-0.006194345187395811,-1.0054391622543335,0.0030343823600560427,0.009005757048726082,-0.001849891385063529
2024-05-13 17:24:03.573161,0.48467865451886155,0.6874602475090759,171.046405648635,0.01577191986143589,-0.011198339983820915,-1.0009498596191406,0.002540098037570715,0.01255439780652523,-0.003296114271506667
2024-05-13 17:24:03.597325,0.48795479744294046,0.7017386512472817,171.0570607437402,0.018797604367136955,-0.007134458981454372,-1.008493185043335,0.003595971269533038,0.010470909997820854,0.0006487868959084153
2024-05-13 17:24:03.606087,0.4861700369963044,0.7142299466613243,171.08636225527957,0.019392462447285652,0.002158720511943102,-1.001371145248413,0.0020442509558051825,0.008174502290785313,0.0010218103416264057
2024-05-13 17:24:03.633198,0.4846074177802524,0.7210836679674619,171.10611516235926,0.02055109292268753,-0.0006541493348777294,-1.0086216926574707,0.0017426785780116916,0.0033206166699528694,-0.0006259077927097678
2024-05-13 17:24:03.656985,0.4864872139058869,0.7262943018913883,171.10041878459145,0.01849299483001232,-0.009105708450078964,-0.999546229839325,0.0007816165452823043,0.003609246341511607,-0.0015943346079438925
2024-05-13 17:24:03.666857,0.4914727717523202,0.7333581582362095,171.099517199621,0.012948348186910152,-0.01350327581167221,-1.008230447769165,0.002430206397548318,0.006265405565500259,-0.0004394672578200698
2024-05-13 17:24:03.678381,0.48975940812685187,0.74232977179358,171.1128224081242,0.015632430091500282,-0.00744550721719861,-1.0053974390029907,-0.001138897379860282,0.006918767001479864,-0.001960105262696743
2024-05-13 17:24:03.717440,0.48587932706975573,0.7570096092280828,171.13711056081277,0.01690567471086979,-0.0012688871938735247,-1.0068432092666626,0.0004406482621561736,0.010487186722457409,-0.0032996449153870344
2024-05-13 17:24:03.726509,0.4874680397428713,0.7734444851141615,171.13375010774112,0.019409935921430588,-0.007251973729580641,-1.0013420581817627,0.0006214694585651159,0.010729754343628883,-0.0025759111158549786
2024-05-13 17:24:03.753321,0.4900487306712254,0.7857779391253533,171.1422468630686,0.019542641937732697,-0.007070120424032211,-1.0040743350982666,0.0037611601874232292,0.009210887365043163,-0.0010508326813578606
2024-05-13 17:24:03.772866,0.49136919833685927,0.7954505008462963,171.162751090957,0.021210242062807083,-0.004462080541998148,-1.0061954259872437,0.0009325867285951972,0.006032438017427921,0.00045417697401717305
2024-05-13 17:24:03.795187,0.4900602566154498,0.8003558573308348,171.1823127527399,0.01808912679553032,-0.0030973756220191717,-1.0024621486663818,0.0012688682181760669,0.00456191785633564,-8.204314508475363e-05
2024-05-13 17:24:03.813398,0.4895971911340641,0.809910651649448,171.19031773444718,0.02077198028564453,-0.004093487281352282,-1.0046420097351074,0.0006179595366120338,0.004582323133945465,-0.0005296675954014063
2024-05-13 17:24:03.834784,0.4932936574963632,0.8145757242134196,171.19850030107284,0.01691610738635063,-0.011452678591012955,-1.0035570859909058,0.0014013907639309764,0.00478615565225482,-0.00011888582957908511
2024-05-13 17:24:03.855137,0.4905624889628573,0.8296816480582548,171.19959313134004,0.02064678631722927,-0.012617011554539204,-1.0002318620681763,-0.003816047450527549,0.010599777102470398,-0.0028601556550711393
2024-05-13 17:24:03.872761,0.4800078723436306,0.8591290481694128,171.205658339323,0.016536112874746323,-0.008908825926482677,-0.9755597710609436,-0.007684601470828056,0.02443448081612587,-0.002410880522802472
2024-05-13 17:24:03.888801,0.4723134508001997,0.9130707873047058,171.23079343546866,0.010859368368983269,-0.003130850847810507,-0.9837148785591125,-0.004874485544860363,0.044107984751462936,-3.4646596759557724e-05
2024-05-13 17:24:03.921108,0.4662400252458832,0.9815699007171175,171.26004030549467,0.013676455244421959,-0.0014828697312623262,-0.9809950590133667,-0.003656682325527072,0.058525994420051575,-0.00011345319217070937
2024-05-13 17:24:03.933291,0.45813109659719714,1.0683108485770465,171.29137721340666,0.01698874495923519,-0.002504350384697318,-0.9877116680145264,-0.004195960704237223,0.07181061804294586,0.0018155479338020086
2024-05-13 17:24:03.948953,0.45338459537171427,1.1665631197876798,171.31675819636246,0.01585152931511402,-0.004950351547449827,-0.9841577410697937,-0.0038081081584095955,0.0855053961277008,0.0032847928814589977
2024-05-13 17:24:03.975237,0.45069670248990273,1.2826830591453608,171.31610249820213,0.020553814247250557,-0.009131659753620625,-0.9868250489234924,-0.0032959452364593744,0.10024166852235794,-0.0006874063983559608
2024-05-13 17:24:03.992478,0.4484324947800435,1.424454627704671,171.30854830898008,0.0254195649176836,-0.01284841913729906,-0.9896372556686401,-0.003840907011181116,0.11849817633628845,-0.0008604063186794519
2024-05-13 17:24:04.008098,0.4400101778423302,1.5789999306723743,171.33734438652087,0.022481843829154968,-0.00026681850431486964,-0.9855203628540039,-0.0036341967061161995,0.13399426639080048,-0.0013356166891753674
2024-05-13 17:24:04.035320,0.4350483388950068,1.7412557701610816,171.35910536921654,0.026513367891311646,-0.002035569865256548,-0.9909745454788208,-0.0023320033214986324,0.14096158742904663,-0.0015804334543645382
2024-05-13 17:24:04.053272,0.42824282911945605,1.9152591081353878,171.39739540970362,0.035224799066782,0.0022954402957111597,-0.987920880317688,-0.002441076096147299,0.14869678020477295,0.0008722261991351843
2024-05-13 17:24:04.076627,0.42230109815007383,2.0956053439711084,171.42371895876485,0.03735038638114929,-0.0035648574121296406,-0.9947006702423096,-0.0034206202253699303,0.15610726177692413,-0.0004036163445562124
2024-05-13 17:24:04.094574,0.41942641560271826,2.2830665024878667,171.4367782804579,0.035832345485687256,-0.008840850554406643,-0.9919034838676453,-0.0029985487926751375,0.16380059719085693,-0.0036134368274360895
2024-05-13 17:24:04.105136,0.4200304604574413,2.4859162906480754,171.45026107387952,0.04543342813849449,-0.011125379242002964,-0.9963824152946472,-0.0010928289266303182,0.17360474169254303,-0.0033829975873231888
2024-05-13 17:24:04.136561,0.41535287477346683,2.6968143895280865,171.4732241698691,0.039231494069099426,-0.004346229135990143,-0.9947729110717773,-0.0034016077406704426,0.18430005013942719,-0.0017386622494086623
2024-05-13 17:24:04.154956,0.4117764436497453,2.9174474289660695,171.50263496443517,0.04571375623345375,-0.001611199346370995,-0.990588903427124,-0.0015653602313250303,0.19123739004135132,-0.000977725489065051
2024-05-13 17:24:04.164598,0.4097678344252327,3.1416138106390648,171.5238085508622,0.058661144226789474,-0.0020454006735235453,-0.9923830628395081,-0.0006206065881997347,0.1922301948070526,0.000939133286010474
2024-05-13 17:24:04.197316,0.40525977617089204,3.367304391714031,171.54638915625827,0.060242585837841034,1.7306803783867508e-05,-0.995242714881897,-0.0014315248699858785,0.19588761031627655,0.001371213118545711
2024-05-13 17:24:04.210495,0.4078573291287596,3.5984433293125515,171.55287783596978,0.061123304069042206,-0.008072988130152225,-0.9976531267166138,0.0014111234340816736,0.19973124563694,6.269192090258002e-05
2024-05-13 17:24:04.233125,0.4127298953691968,3.836196664791995,171.54423081648054,0.06375724822282791,-0.013841686770319939,-0.9991679191589355,0.001830621506087482,0.20770515501499176,-0.003549448912963271
2024-05-13 17:24:04.257333,0.4102060337491713,4.082059569250359,171.55692130795842,0.06330897659063339,-0.004462103825062513,-0.9981026649475098,-0.0008945867884904146,0.21597374975681305,-0.0021380423568189144
2024-05-13 17:24:04.272127,0.4078018605221797,4.334893535530367,171.57138764862052,0.06988491863012314,-0.0006179712945595384,-0.9963734745979309,0.00021938938880339265,0.2191973477602005,0.0005546435713768005
2024-05-13 17:24:04.293157,0.40454956989934293,4.588659395745259,171.58623647987613,0.08392748236656189,0.0036754405591636896,-0.9946010708808899,0.00018340707174502313,0.21820949018001556,0.0005939664551988244
2024-05-13 17:24:04.317328,0.40351319541449926,4.841693998832136,171.5999514997295,0.0899219736456871,-0.0014896441716700792,-0.996813952922821,-0.00012600516492966563,0.2183188647031784,0.004960455931723118
2024-05-13 17:24:04.334461,0.4094877699888357,5.096447248268918,171.58812161208704,0.08950168639421463,-0.014490771107375622,-1.0011823177337646,0.0012494665570557117,0.22216877341270447,0.0009421540889889002
2024-05-13 17:24:04.353229,0.41373745499347947,5.363143937243113,171.57921504540934,0.08850886672735214,-0.010625340975821018,-0.9992318749427795,0.0018609932158142328,0.2319074124097824,-0.0038467529229819775
2024-05-13 17:24:04.377217,0.41200378756348627,5.636494511129371,171.59252025391254,0.09261223673820496,-0.003926489036530256,-0.9956322908401489,0.00046750882756896317,0.2379285991191864,-0.00045685534132644534
2024-05-13 17:24:04.386738,0.40812589430135865,5.913213648936914,171.60671338700783,0.10496225953102112,0.0016793336253613234,-0.9939427375793457,0.00014263161574490368,0.2384980469942093,2.9259565053507686e-05
2024-05-13 17:24:04.413188,0.4027758818296817,6.185239593011011,171.62877489802696,0.11573362350463867,0.004958510864526033,-0.9910945892333984,-4.9125548684969544e-05,0.2345937192440033,0.0030247834511101246
2024-05-13 17:24:04.437216,0.4071555271915408,6.460109883987596,171.6185842557853,0.11959211528301239,-0.014819872565567493,-0.9970930814743042,-0.0012330837780609727,0.2375899851322174,0.003191067837178707
2024-05-13 17:24:04.446418,0.41068788225077457,6.743196465648883,171.60551127371392,0.11443789303302765,-0.01614265888929367,-0.9973085522651672,-0.00032092860783450305,0.24691462516784668,-0.0014207575004547834
2024-05-13 17:24:04.473318,0.4071663861251041,7.032945469958695,171.6142402554732,0.1133355125784874,-0.0070026167668402195,-0.990641176700592,-0.0018794341012835503,0.2529968321323395,-0.0013177860528230667
2024-05-13 17:24:04.491654,0.39882221615644925,7.326804540601562,171.64121950269472,0.12710805237293243,0.005087876692414284,-0.9925433993339539,-0.0024810796603560448,0.25445106625556946,0.00149953190702945
2024-05-13 17:24:04.500070,0.3877900199038506,7.6187891512040835,171.67852599594133,0.13828019797801971,0.00948876328766346,-0.9864957928657532,-0.004282921552658081,0.2510116696357727,0.005696586333215237
2024-05-13 17:24:04.533316,0.3883771226877808,7.910655087269776,171.6732257691454,0.14583444595336914,-0.010524008423089981,-0.9933661222457886,-0.002611227799206972,0.2521170377731323,0.004259653389453888
2024-05-13 17:24:04.553622,0.3939063209034648,8.21471547232488,171.6490878806186,0.14277145266532898,-0.017740372568368912,-0.9906139373779297,-0.0010902065550908446,0.26302993297576904,-0.0020662546157836914
2024-05-13 17:24:04.575137,0.3926796082563599,8.521777725520204,171.65371874887586,0.14124082028865814,-0.009284688159823418,-0.9916506409645081,-0.0019355188123881817,0.2681533396244049,-0.001123874681070447
2024-05-13 17:24:04.593446,0.38250558792037637,8.828645318324183,171.69086131758237,0.15047544240951538,0.007960513234138489,-0.9877849817276001,-0.002805685857310891,0.26684102416038513,0.0006522705662064254
2024-05-13 17:24:04.616183,0.3750879224404632,9.132065373144599,171.72600947105127,0.15995346009731293,0.010144783183932304,-0.9834762811660767,-0.0011645433260127902,0.2643011808395386,0.0028395140543580055
2024-05-13 17:24:04.619667,0.3771465307841344,9.442397579405066,171.7277579994788,0.1695224642753601,-0.007194346282631159,-0.9902051687240601,-0.00035480340011417866,0.2685418725013733,0.0035701999440789223
2024-05-13 17:24:04.652980,0.38497800967821516,9.761247885334187,171.7033878845202,0.16952311992645264,-0.021989276632666588,-0.9801727533340454,0.00021968699002172798,0.2746565341949463,0.0005667419172823429
2024-05-13 17:24:04.667676,0.3842856792923845,10.080066601638395,171.7052730167311,0.1737770289182663,-0.008581404574215412,-0.9908166527748108,-0.000746379722841084,0.27778559923171997,-0.0017256553983315825
2024-05-13 17:24:04.695228,0.3736859193916123,10.397971780141114,171.74632245364288,0.1771850436925888,0.010057112202048302,-0.9793404936790466,-0.0015551229007542133,0.27623116970062256,0.00023697959841229022
2024-05-13 17:24:04.712485,0.37002581845055815,10.711723349854822,171.77222253097557,0.18408207595348358,0.007276454009115696,-0.9885729551315308,0.0007461941568180919,0.274677574634552,1.4097837265580893e-05
2024-05-13 17:24:04.728994,0.373648700196721,11.036597882631893,171.77439453113163,0.1893092691898346,-0.00584289850667119,-0.9796315431594849,0.0032208485063165426,0.28217265009880066,0.00040731439366936684
2024-05-13 17:24:04.755313,0.3820829432850554,11.366133165743852,171.74822124623216,0.19829313457012177,-0.02040080726146698,-0.9816685914993286,0.0007693107472732663,0.28604164719581604,0.00020307913655415177
2024-05-13 17:24:04.773022,0.37976131929748574,11.697086566882234,171.7621001906256,0.2052193582057953,-0.002560695633292198,-0.9782490730285645,0.00021482743613887578,0.2852795124053955,0.000621967192273587
2024-05-13 17:24:04.796434,0.37639422279965457,12.021004873175505,171.77794622950003,0.2089906632900238,0.0021931990049779415,-0.9799889922142029,0.0012378816027194262,0.2827135920524597,-0.0028240177780389786
2024-05-13 17:24:04.821341,0.37470641902272095,12.354010746159476,171.80002140089752,0.20906148850917816,0.004905088804662228,-0.9776548147201538,0.0024375058710575104,0.29053038358688354,-0.002404478844255209
2024-05-13 17:24:04.833213,0.3788952726550693,12.68741020879437,171.7937649476178,0.2148292064666748,-0.010202258825302124,-0.97578364610672,0.0006854323437437415,0.291018009185791,0.0014672072138637304
2024-05-13 17:24:04.855799,0.37750100692988753,13.023104614990388,171.80297204261896,0.22768071293830872,-0.005558566190302372,-0.9748724699020386,-0.0022821964230388403,0.2900579869747162,0.004199391696602106
2024-05-13 17:24:04.865968,0.37874458160650587,13.353006166996588,171.80809468449647,0.23595081269741058,-0.0037250076420605183,-0.9731622338294983,0.001388861914165318,0.2850233316421509,0.0009920615702867508
2024-05-13 17:24:04.893289,0.3771253198451104,13.689604719483986,171.82525211969156,0.23625054955482483,0.0029859314672648907,-0.9719740152359009,0.001895903144031763,0.2912510335445404,-0.0016832867404446006
2024-05-13 17:24:04.908020,0.3801180899599131,14.025347790777841,171.82491061023305,0.2388865351676941,-0.005114561412483454,-0.9695194959640503,0.0013656433438882232,0.29247114062309265,0.00014007207937538624
2024-05-13 17:24:04.934378,0.37984474899098036,14.359758975183542,171.8360574789585,0.2464085817337036,-0.004391294438391924,-0.9689003825187683,-0.001377971493639052,0.29022371768951416,0.005200955085456371
2024-05-13 17:24:04.953184,0.38223350093148656,14.687505602506604,171.83783332814272,0.25381287932395935,-0.005919210147112608,-0.9706044793128967,0.0019161084201186895,0.286923885345459,0.002169041894376278
2024-05-13 17:24:04.961785,0.382808757606075,15.031672004594377,171.85135710269935,0.25665736198425293,0.0015962743200361729,-0.9617943167686462,0.003495096694678068,0.2979407012462616,-0.0003041767340619117
2024-05-13 17:24:04.994730,0.3845402372410997,15.374484321679194,171.8539389142056,0.2685471773147583,-0.004948897287249565,-0.9652775526046753,0.0008391341543756425,0.296355664730072,0.003057064488530159
2024-05-13 17:24:05.009144,0.38628201552073227,15.71365956303098,171.85971725424344,0.27358928322792053,-0.007509855553507805,-0.9588501453399658,-0.0008288054959848523,0.2928208112716675,0.005325451027601957
2024-05-13 17:24:05.022255,0.3883832591858632,16.042942982917296,171.86197121666953,0.27729371190071106,-0.0022962167859077454,-0.9661918878555298,0.002165891695767641,0.28929319977760315,0.00016015325672924519
2024-05-13 17:24:05.055219,0.3879935381967758,16.382717573368748,171.87421091566222,0.27555105090141296,0.0024961140006780624,-0.9508757591247559,0.0023663961328566074,0.2950352728366852,0.0006399948615580797
2024-05-13 17:24:05.069856,0.38995777787210983,16.7249305413539,171.87750306684214,0.29073530435562134,-0.005438079126179218,-0.9608421921730042,-0.0001410589029546827,0.29657182097435,0.00560619356110692
2024-05-13 17:24:05.097310,0.3934968030379549,17.06324517887026,171.87432019868893,0.29496675729751587,-0.010446499101817608,-0.951168417930603,0.0004979592631570995,0.29280248284339905,0.0044168089516460896
2024-05-13 17:24:05.115107,0.39679989319274367,17.389900683473414,171.87187499096606,0.30527377128601074,-0.004329401534050703,-0.9460300803184509,0.0027005174197256565,0.2829797863960266,-0.00199014600366354
2024-05-13 17:24:05.133261,0.40778870707194215,17.701992517218805,171.82589415747353,0.3197596073150635,-0.02702028676867485,-0.9269543886184692,0.004606146365404129,0.2634282410144806,-0.006897938437759876
2024-05-13 17:24:05.157349,0.4019266171754994,17.95271851636622,171.8518215555629,0.33538082242012024,0.020506838336586952,-0.9392350912094116,0.0028008767403662205,0.2137976735830307,-0.0019323437009006739
2024-05-13 17:24:05.166827,0.3861657689027098,18.15260058733206,171.88563099195446,0.3457447588443756,0.007445719093084335,-0.9323264360427856,-0.006360776722431183,0.16817255318164825,0.009946449659764767
2024-05-13 17:24:05.178414,0.3946887777698279,18.316818825546676,171.87287219858487,0.33074951171875,-0.003205503337085247,-0.935141921043396,0.004267263226211071,0.1449943482875824,-0.00015089742373675108
2024-05-13 17:24:05.217430,0.40138439086885025,18.467851383568583,171.86071446186227,0.31320977210998535,-0.009478800930082798,-0.9484273195266724,0.0046660518273711205,0.13541924953460693,-0.0018178904429078102
2024-05-13 17:24:05.226512,0.4033252584906181,18.613716903483375,171.85063310264732,0.31944674253463745,-0.017779449000954628,-0.9425690770149231,-0.004241881892085075,0.12772293388843536,0.00744598638266325
2024-05-13 17:24:05.241152,0.40409608269105113,18.74205274289333,171.85089264983577,0.33048614859580994,-0.0034891623072326183,-0.9419593214988708,-0.0007156430510804057,0.10798290371894836,0.0029204124584794044
2024-05-13 17:24:05.276940,0.386698176812427,18.84700713722704,171.92241839082416,0.3447093963623047,0.03164897486567497,-0.9358117580413818,0.002687782049179077,0.08535837382078171,0.0019584165420383215
2024-05-13 17:24:05.286511,0.4002213910800969,18.92784413360143,171.88035808591522,0.3492181599140167,-0.01829422079026699,-0.9371809363365173,0.00216539460234344,0.06618982553482056,0.005505950190126896
2024-05-13 17:24:05.313313,0.41213262734279094,18.9882332511481,171.85693053706208,0.33115652203559875,-0.0176821481436491,-0.9412930607795715,0.0034785375464707613,0.05414438247680664,0.0017798112239688635
2024-05-13 17:24:05.335542,0.41595451838980974,19.039826792591082,171.86193023553452,0.3315729796886444,-0.005148793570697308,-0.942164421081543,0.0059372540563344955,0.04378107935190201,-1.0135059710592031e-05
2024-05-13 17:24:05.355287,0.41672515582725755,19.078593238772783,171.88474306736236,0.3374272882938385,0.008781680837273598,-0.9435365200042725,0.005853628274053335,0.031636133790016174,0.0007455955492332578
2024-05-13 17:24:05.372695,0.41902874384655014,19.097830466570123,171.9019278233141,0.3385390043258667,0.004587431438267231,-0.945249617099762,0.005202205386012793,0.015714971348643303,0.0032294432166963816
2024-05-13 17:24:05.397181,0.43139138624427326,19.10584398601384,171.8706592172938,0.3433185815811157,-0.01657039299607277,-0.9410901665687561,0.0059145535342395306,0.0034794057719409466,0.0009531789692118764
2024-05-13 17:24:05.415333,0.44073452473989533,19.10451380667298,171.8371093280907,0.34194302558898926,-0.017413528636097908,-0.9405801892280579,0.004517510533332825,-0.003789846785366535,-0.0014571776846423745
2024-05-13 17:24:05.433325,0.43690390919342886,19.089967211288144,171.84478646071778,0.33677202463150024,-0.000675514223985374,-0.9480538368225098,0.0017930017784237862,-0.01375191006809473,-0.00015394698129966855
2024-05-13 17:24:05.448010,0.4345642759180086,19.06515996422266,171.8595260089467,0.32989129424095154,0.005235694814473391,-0.9462903141975403,0.002658022101968527,-0.020096024498343468,-0.00012447204790078104
2024-05-13 17:24:05.475129,0.43466331366097377,19.033674499696193,171.85445800858253,0.32821622490882874,-0.00222404720261693,-0.9487730860710144,0.0011900663375854492,-0.027304114773869514,0.0005551667418330908
2024-05-13 17:24:05.499441,0.44076752842740824,18.998399987727662,171.82221951570006,0.3320322334766388,-0.013902231119573116,-0.9434308409690857,0.0007551513845100999,-0.032063037157058716,0.002748807892203331
2024-05-13 17:24:05.508823,0.4426198703942304,18.95940643775606,171.79417475896798,0.3390979468822479,-0.008778547868132591,-0.9433848261833191,0.001516598043963313,-0.039092253893613815,0.00035220402060076594
2024-05-13 17:24:05.535308,0.43814566960104895,18.908820349215652,171.78828713590343,0.33483248949050903,0.0024356613866984844,-0.9434233903884888,0.0005798485944978893,-0.04568680375814438,0.000181023555342108
2024-05-13 17:24:05.552740,0.4369516938371925,18.850849118635168,171.77860192766036,0.3303152620792389,-0.00012431154027581215,-0.9411707520484924,0.0015171489212661982,-0.052060265094041824,0.0003817030810751021
2024-05-13 17:24:05.577314,0.43927435836139356,18.782207425023834,171.75222373708579,0.32645919919013977,-0.009520113468170166,-0.9468743205070496,0.0009531872346997261,-0.05947274714708328,0.0001868341933004558
2024-05-13 17:24:05.589072,0.4402580390040076,18.70655454222948,171.7225670557096,0.3288654088973999,-0.010845295153558254,-0.9442406296730042,-0.0010431221453472972,-0.06736334413290024,0.0012993162963539362
2024-05-13 17:24:05.613157,0.437072796292828,18.630013734843025,171.71014977179848,0.3307322859764099,-0.0028681783005595207,-0.9432013630867004,9.235940524376929e-05,-0.06928902119398117,0.0004738680145237595
2024-05-13 17:24:05.637322,0.43371298355141646,18.548953049773313,171.70323762035844,0.3285052180290222,-0.0008043956477195024,-0.9473987817764282,-0.00023775067529641092,-0.07346945255994797,-7.056392496451735e-05
2024-05-13 17:24:05.647908,0.43245814973483815,18.462226722787076,171.6922000346597,0.3257259428501129,-0.0043660965748131275,-0.9486987590789795,-0.0007311127264983952,-0.07812688499689102,-6.180249329190701e-05
2024-05-13 17:24:05.673195,0.4331976244341978,18.36650162156935,171.68833414758947,0.3181222081184387,-0.006806103512644768,-0.949510395526886,-0.00042072334326803684,-0.08160609751939774,0.0022066922392696142
2024-05-13 17:24:05.697331,0.43494383166462036,18.2729895016427,171.6810395055559,0.31728625297546387,-0.006755114998668432,-0.949535071849823,0.00156325101852417,-0.08175040036439896,0.00044072733726352453
2024-05-13 17:24:05.709657,0.43469167495428523,18.17907098546044,171.67961882620855,0.32261043787002563,-0.003700800472870469,-0.9477728009223938,0.0021353764459490776,-0.086683489382267,0.000909211696125567
2024-05-13 17:24:05.733305,0.435529707148934,18.075188930826425,171.67252908985006,0.32437703013420105,-0.004238154273480177,-0.9487513899803162,0.0010039735352620482,-0.09440388530492783,0.0017508446471765637
2024-05-13 17:24:05.753967,0.43748716999595094,17.95861979980911,171.67190071244642,0.31660085916519165,-0.00422767223790288,-0.9496457576751709,0.0015848256880417466,-0.10109912604093552,0.001358600566163659
2024-05-13 17:24:05.774506,0.4368374749315799,17.840812697004733,171.67258373136343,0.3099443018436432,-0.005345541052520275,-0.9507887363433838,0.0003517706645652652,-0.10251671075820923,0.0011375878239050508
2024-05-13 17:24:05.793192,0.43390313495069255,17.718634273131542,171.67191437282477,0.30563730001449585,-0.002476072870194912,-0.954545795917511,-0.0002213976113125682,-0.10513804107904434,0.0014075272483751178
2024-05-13 17:24:05.805505,0.4315908224319523,17.59572843411175,171.66972871229035,0.3081071376800537,-0.0024504256434738636,-0.9544845819473267,-0.0011493285419419408,-0.10804923623800278,0.0027008603792637587
2024-05-13 17:24:05.834679,0.43168292326404173,17.47149753839297,171.65910093794182,0.3116040527820587,-0.004124221857637167,-0.9498139023780823,-8.796068868832663e-05,-0.11138025671243668,0.0012493545655161142
2024-05-13 17:24:05.851462,0.4326737009000902,17.342922642362065,171.6398807856174,0.3089107871055603,-0.0077254935167729855,-0.9528719186782837,0.001567478058859706,-0.11422885954380035,-0.000986120430752635
2024-05-13 17:24:05.876980,0.43531802464551655,17.213941350075547,171.62105678426485,0.3045661151409149,-0.009814196266233921,-0.9509391188621521,0.001513454713858664,-0.11563532799482346,-0.0008493282366544008
2024-05-13 17:24:05.895170,0.4354400342356512,17.07954201022991,171.6126419912074,0.29898256063461304,-0.005267170257866383,-0.9564763307571411,0.0015607258537784219,-0.11710131913423538,-0.0018636166350916028
2024-05-13 17:24:05.899286,0.4309417943782424,16.942017858838998,171.62366591652778,0.29450586438179016,0.0007962029194459319,-0.9570271372795105,-0.0003411850775592029,-0.11956092715263367,0.0013162221293896437
2024-05-13 17:24:05.937221,0.42940262725703593,16.805256981087833,171.63082395477798,0.2927822172641754,-0.0024163592606782913,-0.9574580788612366,0.00027462636353448033,-0.11984294652938843,0.0023643593303859234
2024-05-13 17:24:05.946595,0.43203425111947424,16.670645905377928,171.62279165231402,0.2954314947128296,-0.007162873633205891,-0.9561423063278198,0.0010166683932766318,-0.12056352198123932,0.0011383789824321866
2024-05-13 17:24:05.959484,0.43212096250542165,16.527304140361455,171.61947218037741,0.29503631591796875,-0.00630836421623826,-0.9591394066810608,0.0006516905268654227,-0.12680065631866455,5.564036837313324e-05
2024-05-13 17:24:05.997120,0.4334440448528472,16.375477572848535,171.61501889703857,0.29563066363334656,-0.005192562006413937,-0.9554716944694519,0.0015751020982861519,-0.13577501475811005,0.00012117426376789808
2024-05-13 17:24:06.006472,0.4281588124565796,16.214087032950303,171.62856999235186,0.2877127230167389,0.0013694099616259336,-0.9595120549201965,-0.0009855862008407712,-0.1403820514678955,0.0019877690356224775
2024-05-13 17:24:06.033305,0.42736154795353926,16.052027134513413,171.62113874653488,0.2809881269931793,-0.00450829416513443,-0.9619409441947937,-0.0008046113653108478,-0.14104656875133514,0.003629006678238511
2024-05-13 17:24:06.053695,0.4287390583709133,15.89036338704838,171.60690463230458,0.2759970724582672,-0.007056529633700848,-0.9640939235687256,0.0004686330503318459,-0.14088575541973114,0.003175772726535797
2024-05-13 17:24:06.059887,0.4312810360004952,15.730683809537236,171.59384531061153,0.27623251080513,-0.007922885939478874,-0.9594652652740479,0.001860453630797565,-0.14171560108661652,0.0018038171110674739
2024-05-13 17:24:06.092480,0.43301595741053134,15.56941792059136,171.58880463100405,0.27332237362861633,-0.004236019682139158,-0.9614859223365784,0.0027265928220003843,-0.14225782454013824,0.0006133840652182698
2024-05-13 17:24:06.116055,0.4328514459010692,15.409094597750942,171.58084063043182,0.2747079133987427,-0.003817154560238123,-0.9597628712654114,0.0014610793441534042,-0.14330393075942993,-0.0019119640346616507
2024-05-13 17:24:06.135239,0.4310998225440783,15.246409737004992,171.58342244193807,0.2710283398628235,-0.002704410580918193,-0.9642751812934875,0.0004603330744430423,-0.14356109499931335,0.000394578673876822
2024-05-13 17:24:06.152937,0.4261254437963256,15.08110891380693,171.59084002737671,0.2687636911869049,-0.0035710541997104883,-0.9664469957351685,-0.00115562928840518,-0.14558732509613037,-0.00022918754257261753
2024-05-13 17:24:06.169004,0.4239995207367327,14.908440024041715,171.59549821639067,0.2651680111885071,-0.003803771222010255,-0.9664978384971619,-0.0008856814238242805,-0.15187841653823853,-0.0031588710844516754
2024-05-13 17:24:06.195346,0.4219327215021427,14.729069011153424,171.59935044308256,0.2659353017807007,-0.004457986447960138,-0.9643157720565796,-0.00014089595060795546,-0.15885965526103973,-0.001965567469596863
2024-05-13 17:24:06.212435,0.41996421295857744,14.542594601528322,171.60853021732706,0.26146477460861206,-0.0037444669287651777,-0.965568482875824,-0.001224122359417379,-0.16458940505981445,0.0011124667944386601
2024-05-13 17:24:06.228416,0.4144942719700286,14.354267503090853,171.6173548217347,0.2512663006782532,-0.003679815912619233,-0.9689775705337524,-0.003912913613021374,-0.16435617208480835,0.003108395729213953
2024-05-13 17:24:06.255363,0.4105826279684476,14.169094244502636,171.61869353881204,0.24568596482276917,-0.004147353582084179,-0.9721314907073975,-0.0018248865380883217,-0.1616619974374771,0.0017260446911677718
2024-05-13 17:24:06.273029,0.4104950894892804,13.988902755140298,171.6072188210064,0.2442396581172943,-0.0050995140336453915,-0.9690027236938477,-2.190181112382561e-05,-0.15849687159061432,-0.0019395652925595641
2024-05-13 17:24:06.297388,0.41136609869101565,13.812384200004136,171.58771180073686,0.24729681015014648,-0.0064311884343624115,-0.9698429703712463,0.0011502463603392243,-0.15692216157913208,-0.0024592927657067776
2024-05-13 17:24:06.315165,0.4093619184172929,13.632550441799577,171.57253512040108,0.2521282434463501,-0.004799197427928448,-0.9688101410865784,9.28714289329946e-05,-0.16294629871845245,-0.0018980888416990638
2024-05-13 17:24:06.324936,0.40916971262518054,13.439672729827587,171.57261708267112,0.24793840944766998,-0.005284334532916546,-0.969704806804657,0.0004567879077512771,-0.17104020714759827,0.0005654411506839097
2024-05-13 17:24:06.357164,0.408465589490861,13.23904787578951,171.58324485701965,0.23404847085475922,-0.002745110308751464,-0.9706584811210632,0.0009131002007052302,-0.1751367747783661,-0.0001229016634169966
2024-05-13 17:24:06.374669,0.40506151392197653,13.035796814015564,171.60053889599814,0.22734539210796356,-0.0011409069411456585,-0.9723771810531616,0.0007972853491082788,-0.1755213737487793,-0.0017650927184149623
2024-05-13 17:24:06.397207,0.40685828056051304,12.835267582625866,171.6036944433947,0.22673074901103973,-0.005546839442104101,-0.9766151905059814,0.0015958609292283654,-0.1759427934885025,-0.0015828758478164673
2024-05-13 17:24:06.417213,0.40458046583316665,12.635989129627928,171.6153330857404,0.2284328192472458,-0.004769195802509785,-0.9743415117263794,-0.0004227871831972152,-0.1781768500804901,0.0004441580385901034
2024-05-13 17:24:06.432310,0.40133679298807173,12.43423046418763,171.62533248268528,0.22590452432632446,-0.0045435489155352116,-0.9753061532974243,-0.001980166882276535,-0.17845386266708374,0.0001461678184568882
2024-05-13 17:24:06.437937,0.40076732596602194,12.22837197769803,171.62705369035612,0.21915188431739807,-0.00408883998170495,-0.9788402318954468,0.0006711350288242102,-0.18134601414203644,0.0006858012056909502
2024-05-13 17:24:06.490837,0.40340377898564683,11.790556851900213,171.61601610465738,0.21429410576820374,-0.004196178633719683,-0.9744410514831543,0.0027133335825055838,-0.1964094638824463,-0.0016939693596214056
2024-05-13 17:24:06.498934,0.4028686496724322,11.561686604323194,171.613912406393,0.21219132840633392,-0.0023758637253195047,-0.9772922396659851,0.001268408028408885,-0.20233343541622162,-0.0003147148818243295
2024-05-13 17:24:06.537352,0.3964111060185818,11.339612394970338,171.64677927667913,0.2097710371017456,0.005350181832909584,-0.9793373346328735,-0.0013564261607825756,-0.1972033977508545,0.007642682176083326
2024-05-13 17:24:06.553375,0.39691352512897443,11.115403751501853,171.66804848575453,0.19428928196430206,-0.0019186226418241858,-0.9784519672393799,0.0013169650919735432,-0.19537672400474548,0.008888901211321354
2024-05-13 17:24:06.573148,0.4012815911857563,10.892139381686123,171.6858889398666,0.1914241760969162,-0.005384460557252169,-0.982376754283905,0.002204012591391802,-0.1952018141746521,0.004528713878244162
2024-05-13 17:24:06.597300,0.40190804759869336,10.66627441734391,171.7119256209827,0.1858701854944229,-0.00407714257016778,-0.9856199622154236,0.000974112655967474,-0.19570447504520416,0.007288089953362942
2024-05-13 17:24:06.616023,0.3943541251809237,10.447953396939976,171.74290735905788,0.19387777149677277,-0.0017463653348386288,-0.9845468401908875,-0.0037893173284828663,-0.1951954960823059,0.010605000890791416
2024-05-13 17:24:06.633163,0.3964205508895435,10.21899862577198,171.7443826799186,0.18998153507709503,-0.008955027908086777,-0.9806644916534424,-0.0004716989933513105,-0.2022494375705719,0.005676682107150555
2024-05-13 17:24:06.655052,0.39827417351683503,9.979923221801315,171.75065279357668,0.184088796377182,-0.003617004957050085,-0.9842104911804199,0.0025588322896510363,-0.21050246059894562,0.002945944434031844
2024-05-13 17:24:06.675174,0.3945027351562244,9.7419415018715,171.76838396466204,0.17299774289131165,-0.0017535100923851132,-0.9829232096672058,-0.001655264524742961,-0.2065519243478775,0.005539734847843647
2024-05-13 17:24:06.693298,0.3975281887934227,9.516571726244113,171.7588490205807,0.16237664222717285,-0.014087291434407234,-0.9909781813621521,-0.0008368378621526062,-0.19518329203128815,0.005574007518589497
2024-05-13 17:24:06.709777,0.4006536673493647,9.298953361551044,171.74419143462185,0.16572844982147217,-0.01357946265488863,-0.9853704571723938,0.00042422948172315955,-0.19228583574295044,0.0006243339739739895
2024-05-13 17:24:06.735225,0.39847993296558165,9.079054567448837,171.75685460534305,0.17087692022323608,-0.0038939393125474453,-0.9841583967208862,-0.0005539223784580827,-0.19584044814109802,0.0005928133614361286
2024-05-13 17:24:06.752292,0.39325481157009545,8.851675008658173,171.79200275881192,0.16707012057304382,0.0032280869781970978,-0.9875401854515076,-0.0013812716351822019,-0.20116962492465973,0.0019468528917059302
2024-05-13 17:24:06.772084,0.38753983754507243,8.618618708893584,171.81715151533592,0.16211581230163574,0.0014598423149436712,-0.9916567802429199,-0.0023819308262318373,-0.20597803592681885,0.0015703998506069183
2024-05-13 17:24:06.795125,0.38461043344307744,8.375107097056997,171.81652313793228,0.1509895771741867,-0.006504935212433338,-0.9872110486030579,-0.0028590341098606586,-0.21258322894573212,-0.00011546218593139201
2024-05-13 17:24:06.813157,0.3861473327280361,8.129796584147757,171.82268396856364,0.14114098250865936,-0.006819516886025667,-0.9936796426773071,2.1646643290296197e-05,-0.21061602234840393,1.8986902432516217e-05
2024-05-13 17:24:06.834513,0.38569397892187646,7.895832722997201,171.8362214034986,0.13980193436145782,-0.0029821305070072412,-0.9904316067695618,0.0015017560217529535,-0.20569340884685516,-0.001199027756229043
2024-05-13 17:24:06.855087,0.38580030042126123,7.672576037144287,171.84893921573317,0.14376439154148102,-0.002852736972272396,-0.9897813200950623,0.0020663863979279995,-0.19924324750900269,-0.0015266818227246404
2024-05-13 17:24:06.872764,0.3874278864757077,7.44575313877098,171.85408917836736,0.14114102721214294,-0.007452384103089571,-0.9869496822357178,0.0009850191418081522,-0.20272354781627655,0.0004016702005174011
2024-05-13 17:24:06.888303,0.39050248545841837,7.207987423573666,171.8628454808833,0.13703083992004395,-0.007875604555010796,-0.9931424260139465,0.0032172745559364557,-0.20882415771484375,0.0012985891662538052
2024-05-13 17:24:06.914934,0.3877078708708253,6.963519585253278,171.89931869105118,0.1293625384569168,0.0006543361814692616,-0.990615963935852,0.0018409030744805932,-0.21398398280143738,0.0035103524569422007
2024-05-13 17:24:06.933292,0.3855902454238569,6.713376713506254,171.9304506932881,0.12671318650245667,-0.0005159586435183883,-0.9950796365737915,-0.0005921015981584787,-0.2183690220117569,0.004037955775856972
2024-05-13 17:24:06.948063,0.3851430814766326,6.463485278098052,171.94553175097548,0.1176275685429573,-0.0073855542577803135,-0.9915147423744202,-0.0001821536134229973,-0.21951985359191895,0.004655096679925919
2024-05-13 17:24:06.975095,0.3863676863700483,6.217559194389866,171.95378261949284,0.11675624549388885,-0.008127906359732151,-0.9957946538925171,0.000691170571371913,-0.21638381481170654,0.00037601296207867563
2024-05-13 17:24:06.992484,0.38765176193401074,5.972764360762962,171.97412292284116,0.10650333762168884,-0.0032478063367307186,-0.9915457367897034,0.002467696787789464,-0.21425548195838928,-0.0002638912701513618
2024-05-13 17:24:07.008149,0.38860644095307867,5.7349461384864036,171.99118473538783,0.10965991020202637,2.0471285097301006e-05,-0.9941675662994385,0.0030653420835733414,-0.21020345389842987,8.493717177771032e-05
2024-05-13 17:24:07.035283,0.389740625881271,5.4962416991650365,171.99983175487708,0.10085149854421616,-0.005599373020231724,-0.9927208423614502,0.0010209183674305677,-0.20945177972316742,0.0017165301833301783
2024-05-13 17:24:07.052515,0.3901867226114375,5.251567247622255,172.00229062297828,0.10477660596370697,-0.00850322749465704,-0.9985341429710388,-0.0011036803480237722,-0.21537308394908905,0.0027431012131273746
2024-05-13 17:24:07.076374,0.3884503604583733,4.992623250242847,172.03041734198038,0.0921761766076088,-0.004345410969108343,-0.9950257539749146,-0.0009030507644638419,-0.22476474940776825,0.003085380420088768
2024-05-13 17:24:07.094432,0.381360677460753,4.736806625729659,172.07208149591747,0.09843816608190536,0.0032838203478604555,-0.9987735748291016,-0.0016260958509519696,-0.22627344727516174,0.0028848787769675255
2024-05-13 17:24:07.104600,0.37586952553318004,4.481686680511812,172.0977903279534,0.08344080299139023,-0.004257806111127138,-0.9951478242874146,-0.003969709854573011,-0.22273479402065277,0.0036517223343253136
2024-05-13 17:24:07.136906,0.3754377295115883,4.229238193033086,172.11203810256205,0.0753132775425911,-0.006628962699323893,-1.0002236366271973,-0.0012821396812796593,-0.2206319123506546,0.0020814184099435806
2024-05-13 17:24:07.154934,0.3753632377609529,3.9757728611416745,172.12852617921845,0.06956669688224792,-0.004724889062345028,-0.9936696887016296,0.0002190762897953391,-0.22062839567661285,0.0007916682516224682
2024-05-13 17:24:07.165903,0.3729026887928822,3.7356328014341353,172.15330610552726,0.07753592729568481,0.0005937624955549836,-0.9976140856742859,0.0015312577597796917,-0.21491579711437225,0.0022228846792131662
2024-05-13 17:24:07.197296,0.3739484281074082,3.4938690776948365,172.17066844639743,0.07175236940383911,-0.0068265898153185844,-0.9951911568641663,0.001731914933770895,-0.2159479409456253,0.004386936780065298
2024-05-13 17:24:07.210504,0.37602974149398444,3.2384025003766115,172.18706090040547,0.07132591307163239,-0.008469107560813427,-0.9975125789642334,0.0013801546301692724,-0.22660429775714874,0.0028661976102739573
2024-05-13 17:24:07.233153,0.3738595556069187,2.9674657580317194,172.22237297841443,0.061908017843961716,-0.0015068361535668373,-0.9973957538604736,0.0003045042394660413,-0.23620454967021942,0.0034637446515262127
2024-05-13 17:24:07.257305,0.36868982277673307,2.703000619925414,172.26403713235152,0.054205868393182755,0.0003520922618918121,-1.0025116205215454,-0.001888378756120801,-0.2313876897096634,0.003944870550185442
2024-05-13 17:24:07.272176,0.3683795560975999,2.446290307848012,172.2806208316563,0.04240911826491356,-0.007933324202895164,-0.9967555999755859,-0.0011622019810602069,-0.22454839944839478,0.002447263803333044
2024-05-13 17:24:07.298284,0.3713417504436963,2.1891127681426985,172.28810671898663,0.03917255625128746,-0.008181588724255562,-1.0001022815704346,0.0010478687472641468,-0.2233830690383911,0.0006287338910624385
2024-05-13 17:24:07.317294,0.371394390925073,1.9380924305307403,172.3104824187076,0.043412912636995316,-0.0011560460552573204,-1.0009158849716187,0.0020771182607859373,-0.22178201377391815,0.0005600443691946566
2024-05-13 17:24:07.334605,0.37032597324806843,1.6913773532517116,172.33579509977167,0.04624708741903305,0.00017330527771264315,-0.9981797337532043,0.001615456654690206,-0.2208324372768402,0.002106719184666872
2024-05-13 17:24:07.353140,0.3706142285753842,1.4356410901829766,172.35180506318616,0.036705613136291504,-0.005179333034902811,-0.9936715960502625,0.0005156582919880748,-0.2260444462299347,0.0023400927893817425
2024-05-13 17:24:07.377307,0.36970319873398083,1.168444516738901,172.37620249890145,0.027304405346512794,-0.005248782224953175,-1.0021140575408936,-0.001311657135374844,-0.23206505179405212,0.0021533207036554813
2024-05-13 17:24:07.386865,0.3660137760042632,0.9010482669833082,172.41159653918047,0.018635857850313187,-0.0025407993234694004,-1.0012118816375732,-0.001565605285577476,-0.23242798447608948,0.0016984788235276937
2024-05-13 17:24:07.413145,0.3610442530941236,0.6430947003944052,172.4470725417295,0.01538015529513359,-0.0025355140678584576,-1.0001335144042969,-0.0023103123530745506,-0.2260553389787674,0.0029139695689082146
2024-05-13 17:24:07.437212,0.35906469885400993,0.3847491983410198,172.4678499771847,0.009802675805985928,-0.007189412135630846,-0.9977881908416748,-0.002698767464607954,-0.2261664867401123,0.003077456261962652
2024-05-13 17:24:07.447131,0.36045325496793235,0.13042697119346275,172.47965254407046,0.013973825611174107,-0.005466765258461237,-1.0023812055587769,0.0009244722314178944,-0.22560839354991913,-0.00023336001322604716
2024-05-13 17:24:07.459617,0.36105124336585226,-0.12150889191175494,172.50250635703333,0.010525751858949661,0.0009186257375404239,-0.9996172189712524,0.003625540528446436,-0.2228151261806488,-0.002044483320787549
2024-05-13 17:24:07.497371,0.36142242145856013,-0.3750053732010412,172.52510062280774,0.00357025652192533,-0.0014877993380650878,-0.9971278309822083,0.0020955405198037624,-0.22388021647930145,0.0014781381469219923
2024-05-13 17:24:07.507402,0.3642943025611389,-0.6325470740469072,172.5437197184852,-0.0066852085292339325,-0.008024591952562332,-0.997482180595398,0.0014854089822620153,-0.22511489689350128,0.0013595615746453404
2024-05-13 17:24:07.533157,0.3638900941004917,-0.8857324749040537,172.56650522955636,-0.007097241468727589,-0.00587466498836875,-1.0018457174301147,-0.0001693895028438419,-0.2234605848789215,0.0003691993479151279
2024-05-13 17:24:07.555213,0.36067411553804707,-1.1410292046275277,172.60510945874526,-0.01621083915233612,0.0003576279850676656,-1.0009745359420776,0.00014524429570883512,-0.22227764129638672,0.0019215350039303303
2024-05-13 17:24:07.574979,0.3588325257830824,-1.398157332183064,172.62972546051398,-0.013759292662143707,-0.0033663834910839796,-1.0038630962371826,-0.00049961096374318,-0.22725462913513184,0.0022430724930018187
2024-05-13 17:24:07.593353,0.3592698713333748,-1.6599715031177582,172.64820795240806,-0.01656637154519558,-0.004677787888795137,-0.9978295564651489,0.000798444205429405,-0.23153865337371826,0.003388897981494665
2024-05-13 17:24:07.616098,0.3618002963383058,-1.9250271324221522,172.66640357635697,-0.027800409123301506,-0.005053424742072821,-1.0007469654083252,0.0014975983649492264,-0.229499951004982,0.0026149521581828594
2024-05-13 17:24:07.635266,0.36073998951094066,-2.1782679218445993,172.69629248416493,-0.03668323531746864,0.0016205692663788795,-1.0013445615768433,0.0011769169941544533,-0.22168545424938202,-0.0023571376223117113
2024-05-13 17:24:07.652988,0.3613059613971261,-2.427863097797552,172.71515746665253,-0.03560544177889824,-0.004981682635843754,-0.9969403147697449,0.0014870506711304188,-0.2209312468767166,-0.0014387271367013454
2024-05-13 17:24:07.667598,0.3590779056651004,-2.679023240844084,172.739964713718,-0.03794782981276512,-0.0038703721947968006,-0.9934312701225281,-0.000699783384334296,-0.22077657282352448,0.0016094350721687078
2024-05-13 17:24:07.695204,0.3561942584944592,-2.9328328569583464,172.77735316923466,-0.048251666128635406,-0.003183879191055894,-1.0032261610031128,-0.00033877219539135695,-0.2203853279352188,0.001743145170621574
2024-05-13 17:24:07.712455,0.3561311592859159,-3.1818220670658723,172.79437400064631,-0.044824521988630295,-0.0063227503560483456,-1.0012716054916382,0.00016164095723070204,-0.22201310098171234,-0.0006170927081257105
2024-05-13 17:24:07.727320,0.3568232495479086,-3.439049979416314,172.8088403413084,-0.04515174776315689,-0.008776936680078506,-0.9980425834655762,-0.0003879222786054015,-0.22719724476337433,0.0022617438808083534
2024-05-13 17:24:07.755188,0.3518970289698898,-3.7043001623903478,172.8552583069078,-0.06162124127149582,0.0002495507651474327,-0.9981490969657898,-0.001626139390282333,-0.2289738804101944,0.005980554968118668
2024-05-13 17:24:07.772847,0.3477492365138409,-3.957316836230654,172.8846417807172,-0.06459309160709381,-0.0005765132373198867,-1.0000300407409668,-0.0013603664701804519,-0.22166720032691956,0.0008973564836196601
2024-05-13 17:24:07.798409,0.3479445105549945,-4.2015921485938135,172.90242759331593,-0.06742408871650696,-0.00037724472349509597,-0.9959198832511902,-4.669357804232277e-05,-0.2159445732831955,-0.0017358893528580666
2024-05-13 17:24:07.815396,0.3498785213071659,-4.452123914236704,172.9158967263592,-0.06887611001729965,-0.008350064046680927,-0.9945599436759949,0.00013397680595517159,-0.21972371637821198,0.0030082515440881252
2024-05-13 17:24:07.823448,0.3478922969604409,-4.701531686874304,172.94715167200116,-0.07157614082098007,-0.0011395360343158245,-0.9996949434280396,0.00012541738396976143,-0.22031523287296295,0.0029708584770560265
2024-05-13 17:24:07.856288,0.34904417101136653,-4.949932433496151,172.9766171080806,-0.07823342829942703,-0.00407942570745945,-0.9979139566421509,0.0014058598317205906,-0.21984292566776276,0.0015595100121572614
2024-05-13 17:24:07.874278,0.35135872468592816,-5.201685522340005,173.0127624691683,-0.08214663714170456,-0.0007161993999034166,-0.9997307658195496,0.001990437973290682,-0.22159360349178314,0.0027212253771722317
2024-05-13 17:24:07.883387,0.35083119929425044,-5.460645741418691,173.0372282067753,-0.09047457575798035,-0.007845317013561726,-0.9987317323684692,-0.00043620303040370345,-0.22565609216690063,0.0028615547344088554
2024-05-13 17:24:07.917020,0.3480575021609906,-5.709473374863665,173.06767719009522,-0.09436850249767303,-0.0025168554857373238,-0.9973266124725342,-0.0015869042836129665,-0.21790744364261627,0.001656052772887051
2024-05-13 17:24:07.930191,0.34649077415926605,-5.9568521544309485,173.09620006006918,-0.10639354586601257,-0.004780276212841272,-0.9938327074050903,-0.0004776269197463989,-0.21443194150924683,0.0015567094087600708
2024-05-13 17:24:07.952861,0.34643181041682175,-6.19534827298263,173.12353447712758,-0.10003115236759186,0.0021071990486234426,-0.9971925020217896,0.0022884011268615723,-0.2115980088710785,-0.002443975768983364
2024-05-13 17:24:07.977290,0.349206067839037,-6.4366887384368,173.14636096933376,-0.10252819210290909,-0.004671507980674505,-0.9909838438034058,0.0026708380319178104,-0.21244028210639954,0.0016360234003514051
2024-05-13 17:24:07.991000,0.3513135280435297,-6.678520550624387,173.16130542323774,-0.10660377889871597,-0.007516104262322187,-0.9931097030639648,0.0013949351850897074,-0.21273910999298096,0.00211984827183187
2024-05-13 17:24:08.013260,0.34767223680311954,-6.919787164658155,173.19549735022284,-0.11131796985864639,-0.004710971377789974,-0.993744432926178,-0.0012748906156048179,-0.21284130215644836,0.0016441105399280787
2024-05-13 17:24:08.037291,0.34583427558615143,-7.165194580876244,173.2188975783193,-0.1153012290596962,-0.0024035118985921144,-0.9938433170318604,-0.0015561566688120365,-0.21498127281665802,-0.0008219503797590733
2024-05-13 17:24:08.053339,0.3391074197077616,-7.412975060944089,173.25867660004545,-0.12488330155611038,-0.0006504617631435394,-0.9897759556770325,-0.002322364365682006,-0.2162293642759323,0.00303141912445426
2024-05-13 17:24:08.073206,0.34137909793702553,-7.6558173142420145,173.27348445016602,-0.1295372098684311,-0.008046126924455166,-0.9964695572853088,-0.0004451172717381269,-0.21186456084251404,0.0022615077905356884
2024-05-13 17:24:08.097288,0.33989876115613105,-7.889905826344923,173.3062693581821,-0.12965160608291626,-0.0034695682115852833,-0.9931504130363464,-0.0006006559124216437,-0.20726962387561798,0.003692085389047861
2024-05-13 17:24:08.106589,0.34351785428173864,-8.12746151322526,173.3294100390901,-0.1369318664073944,-0.004657709039747715,-0.992111086845398,0.0017628655768930912,-0.20794777572155,0.002609667833894491
2024-05-13 17:24:08.133221,0.339455385829462,-8.357324699552867,173.3821664202393,-0.13421492278575897,0.007355385925620794,-0.9916785359382629,0.0024893812369555235,-0.2050267904996872,0.0010151853784918785
2024-05-13 17:24:08.157206,0.3434584102916184,-8.59058334367162,173.39032166610826,-0.14255718886852264,-0.009924077428877354,-0.9915399551391602,0.0008639936568215489,-0.2049475610256195,-0.0005361261428333819
2024-05-13 17:24:08.165425,0.3414622074654028,-8.82055581302595,173.421726875912,-0.14683915674686432,-0.00411674939095974,-0.985772967338562,-0.00038637511897832155,-0.2029321938753128,0.003101448994129896
2024-05-13 17:24:08.198540,0.3404822620824911,-9.049499485136545,173.45590514251873,-0.1557399481534958,-0.005719372071325779,-0.9896339178085327,0.0013325184118002653,-0.1998537927865982,0.0024267220869660378
2024-05-13 17:24:08.216432,0.3382979622498357,-9.278396199696598,173.49541095667809,-0.1525249034166336,0.001546512939967215,-0.9890315532684326,0.001096413703635335,-0.20287571847438812,0.000678581593092531
2024-05-13 17:24:08.228099,0.33784132675122336,-9.514576457232822,173.5199176754201,-0.15510961413383484,-0.007181037217378616,-0.9826635718345642,-0.00013785771443508565,-0.20762473344802856,0.00433954456821084
2024-05-13 17:24:08.253289,0.338828155684158,-9.752650384716434,173.53901488433945,-0.1619216352701187,-0.007673483341932297,-0.9876550436019897,0.00017747588572092354,-0.2078760415315628,0.0006472858367487788
2024-05-13 17:24:08.274031,0.33427089872345206,-9.977057103670848,173.56998296203628,-0.16597096621990204,-0.0017386102117598057,-0.9882796406745911,-0.0022404296323657036,-0.19875548779964447,-0.0008956643869169056
2024-05-13 17:24:08.295098,0.3334809179768313,-10.197873704442776,173.59713979417626,-0.1758611798286438,-0.001863789395429194,-0.9839845895767212,0.0004093857132829726,-0.19311313331127167,-0.001558060059323907
2024-05-13 17:24:08.312447,0.33230316391225373,-10.418359894813603,173.63146832494473,-0.17784623801708221,0.0006298960652202368,-0.9834116697311401,0.00046245663543231785,-0.19186773896217346,0.00013048193068243563
2024-05-13 17:24:08.334623,0.33505202156849295,-10.63317958949426,173.6479017600878,-0.17699435353279114,-0.007397895213216543,-0.9843332767486572,0.0020638867281377316,-0.1898006647825241,0.000616516568697989
2024-05-13 17:24:08.355125,0.3374958685896088,-10.843462331018735,173.66269594983004,-0.17444387078285217,-0.0077560362406075,-0.9836873412132263,0.0014610154321417212,-0.1886274665594101,0.0035056506749242544
2024-05-13 17:24:08.372750,0.33399142125643694,-11.066464592325065,173.70155972620742,-0.18255621194839478,-0.001527788583189249,-0.982994019985199,1.0860865586437285e-05,-0.19590064883232117,0.003403932088986039
2024-05-13 17:24:08.396954,0.33072619062677416,-11.29156628302753,173.74654335208112,-0.18322603404521942,0.0030762688256800175,-0.9860554933547974,-0.00017484533600509167,-0.19869965314865112,0.0035286524798721075
2024-05-13 17:24:08.433172,0.32797135655501114,-11.51647758220688,173.7894369400688,-0.1988397091627121,-0.0016029165126383305,-0.9815661311149597,-0.0007525150431320071,-0.19388151168823242,0.004358827602118254
2024-05-13 17:24:08.447624,0.3327009157097012,-11.9492127548095,173.81793248928608,-0.20194871723651886,-0.006324408575892448,-0.9823244214057922,0.0006698451470583677,-0.18838487565517426,0.0033680712804198265
2024-05-13 17:24:08.459865,0.3280355229806122,-12.153811071397232,173.86939113449296,-0.20071177184581757,0.005291085224598646,-0.9826847314834595,0.0020421119406819344,-0.18301290273666382,0.00529930554330349
2024-05-13 17:24:08.492704,0.32767728489473036,-12.355523633060633,173.9063970994161,-0.2092166543006897,0.0027210181578993797,-0.9788427948951721,0.00274667888879776,-0.17731468379497528,0.0015826367307454348
2024-05-13 17:24:08.507851,0.331180638330418,-12.559474789224506,173.9178991379784,-0.21192577481269836,-0.008668074384331703,-0.9774572253227234,0.001082771923393011,-0.17991717159748077,-0.0013811347307637334
2024-05-13 17:24:08.535286,0.33441974882259073,-12.765695275740116,173.92135521369843,-0.21286584436893463,-0.014380959793925285,-0.9740185141563416,-0.0007572131580673158,-0.18118663132190704,0.0011902162805199623
2024-05-13 17:24:08.552613,0.32761629343987625,-12.972487790598715,173.9595359711588,-0.21876020729541779,0.00039679050678387284,-0.9747759103775024,-0.0018826385494321585,-0.18135669827461243,0.0007970761507749557
2024-05-13 17:24:08.577341,0.3214851848035849,-13.1698307387406,174.0089865407497,-0.22017276287078857,0.006610136944800615,-0.9750821590423584,-0.0006187257822602987,-0.17521506547927856,0.0007623202982358634
2024-05-13 17:24:08.594337,0.32201239003014526,-13.366811686856476,174.0368127314283,-0.22396916151046753,-0.0039730737917125225,-0.976912796497345,0.0013145121047273278,-0.17412562668323517,0.003378787077963352
2024-05-13 17:24:08.605518,0.32489334247771545,-13.56499560203992,174.05585529883433,-0.2329399436712265,-0.009210255928337574,-0.9718666076660156,0.00019977687043137848,-0.17224620282649994,0.00432066572830081
2024-05-13 17:24:08.636786,0.32288724121328866,-13.757338851709356,174.08686435766617,-0.23605778813362122,-0.005465805530548096,-0.9717693328857422,5.583827805821784e-05,-0.16762779653072357,0.0031678134109824896
2024-05-13 17:24:08.654908,0.3200242980535691,-13.938927968530608,174.11404851056284,-0.23032766580581665,-0.0016084443777799606,-0.9740884304046631,-0.001464374945499003,-0.16362592577934265,4.0656246710568666e-05
2024-05-13 17:24:08.666048,0.3162529930950907,-14.13089641156934,174.14720224879406,-0.23376759886741638,0.0018048965139314532,-0.9723631739616394,-0.0010805986821651459,-0.16921301186084747,-0.00023893509933259338
2024-05-13 17:24:08.696422,0.3137987140272347,-14.326504491662043,174.1827738739915,-0.23910348117351532,0.0024352604523301125,-0.9720324873924255,0.0016550181899219751,-0.1719018965959549,0.001383295631967485
2024-05-13 17:24:08.714416,0.3183771819269646,-14.515596571286553,174.2031824792315,-0.24802449345588684,-0.003935889340937138,-0.9740232229232788,0.0034076347947120667,-0.16485440731048584,0.0007435115985572338
2024-05-13 17:24:08.727522,0.32352271561036433,-14.693217348200028,174.21583198957435,-0.25446441769599915,-0.008969642221927643,-0.9708933234214783,0.002914224751293659,-0.15696734189987183,0.0010425735963508487
2024-05-13 17:24:08.756972,0.32877662518598505,-14.869928002406597,174.2331533493095,-0.25432273745536804,-0.00963861308991909,-0.963689386844635,0.0028820312581956387,-0.1545705795288086,0.00395207479596138
2024-05-13 17:24:08.774225,0.3255143827640842,-15.043676062060674,174.27824625820992,-0.251386821269989,0.002312379889190197,-0.9686036109924316,0.0012332977494224906,-0.154060497879982,0.004111573100090027
2024-05-13 17:24:08.782530,0.32284103071468534,-15.212335630783091,174.30784829807277,-0.2545200288295746,0.0016941705252975225,-0.9704425930976868,-0.0005128453485667706,-0.15074938535690308,0.0016354228137061
2024-05-13 17:24:08.817234,0.32315919480004623,-15.384319794084012,174.331480752601,-0.25867873430252075,-0.005871281027793884,-0.964499831199646,-0.00033712328877300024,-0.1530735194683075,0.0016682945424690843
2024-05-13 17:24:08.834394,0.3206005685843625,-15.564928778759368,174.35071456530378,-0.2646656930446625,-0.007154093123972416,-0.9629326462745667,-0.002649991074576974,-0.15627363324165344,0.001293836859986186
2024-05-13 17:24:08.853067,0.3161602519327666,-15.739047376175918,174.39319834194126,-0.2683088481426239,0.00033741886727511883,-0.9679774045944214,-2.2846332285553217e-05,-0.15213236212730408,0.0032112456392496824
2024-05-13 17:24:08.877281,0.3139505790145617,-15.898887463132557,174.42476747628504,-0.2674944996833801,-0.0010795453563332558,-0.9638091921806335,0.0001832001144066453,-0.14410744607448578,0.0032420274801552296
2024-05-13 17:24:08.886851,0.319602907398291,-16.061825040877796,174.43396091090787,-0.2720281779766083,-0.010438465513288975,-0.9611949920654297,0.0013915668241679668,-0.14357900619506836,0.0021435522940009832
2024-05-13 17:24:08.898125,0.31990941213729535,-16.22621744891625,174.4541646104728,-0.2721613943576813,-0.003916303627192974,-0.9615191221237183,0.0012432443909347057,-0.1451016366481781,0.0026911338791251183
2024-05-13 17:24:08.937193,0.3142865122639352,-16.387348441626017,174.4977275569991,-0.2779746651649475,0.004256331827491522,-0.9639114141464233,0.0010078279301524162,-0.141160249710083,0.0020941102411597967
2024-05-13 17:24:08.945524,0.31242037651664084,-16.53788068829122,174.5285726912909,-0.2794983983039856,0.0015383922727778554,-0.96162348985672,0.00013009479152970016,-0.1339556723833084,-5.21112815476954e-05
2024-05-13 17:24:08.973284,0.31624192071811585,-16.69369608627943,174.54325759800642,-0.2861730456352234,-0.009587123990058899,-0.9598756432533264,7.85509473644197e-05,-0.13546010851860046,0.0016858528833836317
2024-05-13 17:24:08.992692,0.31565313706731957,-16.84488744619954,174.56118001438853,-0.2827637493610382,-0.006558565888553858,-0.9600175023078918,-0.0004564347327686846,-0.13409696519374847,0.0017557893879711628
2024-05-13 17:24:08.999621,0.31254102540502676,-16.987718654575552,174.5899077900376,-0.28452011942863464,-0.002396282274276018,-0.9618009924888611,0.0003169132396578789,-0.12800925970077515,0.001505429157987237
2024-05-13 17:24:09.033281,0.31288720393815533,-17.12494398519028,174.6093191876588,-0.2878355085849762,-0.0022934332955628633,-0.9585942029953003,0.00023141851124819368,-0.12351606041193008,0.0010351450182497501
2024-05-13 17:24:09.053358,0.3154701093419044,-17.270003542783012,174.62542477372168,-0.29518887400627136,-0.00677885115146637,-0.9544147253036499,0.0012815522495657206,-0.1253855973482132,0.0015388871543109417
2024-05-13 17:24:09.075227,0.3149449051473274,-17.417723459057463,174.6569939080655,-0.297554612159729,-0.003005692269653082,-0.9559752345085144,0.002085623098537326,-0.12724260985851288,0.004177544265985489
2024-05-13 17:24:09.099242,0.31141823301892657,-17.555875987852016,174.69753791097867,-0.29804378747940063,0.003526991233229637,-0.9575476050376892,0.0016255293739959598,-0.12315637618303299,0.0028191443998366594
2024-05-13 17:24:09.115877,0.31125500216993385,-17.688402148317774,174.72159383723545,-0.29692625999450684,-0.0015583018539473414,-0.9559587836265564,0.0008365160319954157,-0.11847168207168579,0.002278340980410576
2024-05-13 17:24:09.135105,0.3147895450241361,-17.81862824258053,174.7345028947668,-0.29904210567474365,-0.006420832592993975,-0.9551088809967041,0.0017115537775680423,-0.1160675585269928,0.0022037981543689966
2024-05-13 17:24:09.152928,0.3129876023828692,-17.94878945004617,174.7563458397325,-0.3046020269393921,-0.004295344464480877,-0.9547324776649475,9.601989586371928e-05,-0.11541593074798584,0.00201624259352684
2024-05-13 17:24:09.168915,0.3098494239439393,-18.070052628570576,174.78719097402427,-0.30549731850624084,0.0006011915393173695,-0.953976571559906,0.0003064190677832812,-0.10828940570354462,0.001260267337784171
2024-05-13 17:24:09.179682,0.3120954622833892,-18.188752778608936,174.80325557895213,-0.31337717175483704,-0.0048081097193062305,-0.9507915377616882,0.0013345896732062101,-0.10398034751415253,0.00198769592680037
2024-05-13 17:24:09.212396,0.3133258301489171,-18.311450296859046,174.8170662214539,-0.31069469451904297,-0.005247123539447784,-0.9491451382637024,0.0013419727329164743,-0.10809441655874252,0.0009156402084045112
2024-05-13 17:24:09.227184,0.31427215819450766,-18.430654173348692,174.83456516610747,-0.30506911873817444,-0.0037176969926804304,-0.9535349607467651,0.0018898241687566042,-0.10744178295135498,0.0005763425724580884
2024-05-13 17:24:09.255281,0.3152628024284239,-18.549581427176953,174.8559436582096,-0.31112784147262573,-0.002128059044480324,-0.9524189829826355,0.0023646706249564886,-0.10539821535348892,0.001224999432452023
2024-05-13 17:24:09.272617,0.3144633501304151,-18.661815095618604,174.87786856544534,-0.3143981099128723,-0.001510118250735104,-0.9489110708236694,0.0011041725520044565,-0.1006006971001625,0.0016005439683794975
2024-05-13 17:24:09.296586,0.31698038156127056,-18.77212265071431,174.88863294357728,-0.3223745822906494,-0.006416413467377424,-0.9467494487762451,0.0018942987080663443,-0.09581657499074936,0.0018259789794683456
2024-05-13 17:24:09.321129,0.3159712744722541,-18.875644412869608,174.91338554912943,-0.3215661644935608,-0.0029915368650108576,-0.94925856590271,0.0011890650494024158,-0.09164553880691528,0.0034916738513857126
2024-05-13 17:24:09.325597,0.31535396944558775,-18.970631853656975,174.93591151301212,-0.31919851899147034,-0.0021345987915992737,-0.9507540464401245,0.0009348200401291251,-0.08644385635852814,0.002447691047564149
2024-05-13 17:24:09.357102,0.31423032328584133,-19.06170901114451,174.94483174006817,-0.3163978159427643,-0.0070684729143977165,-0.9495100975036621,-0.001089438796043396,-0.08379672467708588,0.0011708138044923544
2024-05-13 17:24:09.374644,0.31252053483751674,-19.15719505574129,174.95912049581182,-0.32311075925827026,-0.004670002963393927,-0.9479686617851257,-0.0005254606367088854,-0.08407621830701828,0.0022557752672582865
2024-05-13 17:24:09.385637,0.307474865990302,-19.251328722882405,174.9821792144498,-0.3287517726421356,-0.0011266438523307443,-0.9451770782470703,-0.0016588099533692002,-0.08187417685985565,0.002841502195224166
2024-05-13 17:24:09.416879,0.306721890995161,-19.34008020095755,175.00641272562498,-0.33151185512542725,0.00033627168159000576,-0.9444083571434021,0.001080391462892294,-0.07689570635557175,0.0007018740870989859
2024-05-13 17:24:09.435008,0.30804091791776683,-19.425093858009408,175.02407559481864,-0.3315001130104065,-0.0056113204918801785,-0.9430233240127563,0.0020278783049434423,-0.07487209141254425,0.0033371546305716038
2024-05-13 17:24:09.445622,0.3103593135737366,-19.505408344912293,175.03750374672688,-0.3262340724468231,-0.005971275269985199,-0.9471502900123596,0.002939581638202071,-0.07377099245786667,0.0027789603918790817
2024-05-13 17:24:09.477279,0.31042428041213105,-19.58212502966988,175.0538552195999,-0.32406455278396606,-0.004879618063569069,-0.946712851524353,0.0009029738139361143,-0.07292582094669342,0.0005640044109895825
2024-05-13 17:24:09.491540,0.3070398949979633,-19.656430657650446,175.08375778778623,-0.3294852077960968,0.0012642985675483942,-0.9463215470314026,0.0005588955245912075,-0.0680156797170639,0.0009194387821480632
2024-05-13 17:24:09.513082,0.3045246244752532,-19.732592389537967,175.10971250663226,-0.33891263604164124,0.00045034289360046387,-0.9409536719322205,-0.00022549839923158288,-0.06535904109477997,0.0008429717272520065
2024-05-13 17:24:09.537192,0.3029462638075984,-19.803208007819435,175.12916488538846,-0.3401181399822235,-0.002814748790115118,-0.9425669312477112,-0.00020898599177598953,-0.06134626641869545,0.0028727094177156687
2024-05-13 17:24:09.553191,0.301057423017399,-19.86528759718568,175.1464452639886,-0.3351249098777771,-0.00405419897288084,-0.9436803460121155,-0.0007623675046488643,-0.05661715567111969,0.003326964098960161
2024-05-13 17:24:09.573065,0.29994354189373157,-19.924353365580657,175.1633021708602,-0.3358652889728546,-0.004958983510732651,-0.9429093599319458,-0.0003565922088455409,-0.05439629778265953,0.0025665629655122757
2024-05-13 17:24:09.596413,0.29823714185956557,-19.98104052059718,175.17823296438584,-0.3328647315502167,-0.003963990602642298,-0.9444199204444885,-0.0008660691091790795,-0.053101710975170135,0.0014353471342474222
2024-05-13 17:24:09.606842,0.2957857709581921,-20.037548383147985,175.2002398338916,-0.3388034701347351,-0.0018392330966889858,-0.9439261555671692,-0.000941021426115185,-0.051666952669620514,0.0007159864180721343
2024-05-13 17:24:09.633132,0.29426861518880304,-20.093871830591205,175.22049817496986,-0.34351828694343567,-0.0019267931347712874,-0.9403184652328491,-0.0006548960809595883,-0.04913845658302307,0.0007902216166257858
2024-05-13 17:24:09.656290,0.2948271699164367,-20.144782353117186,175.23499183638864,-0.34575140476226807,-0.004403923638164997,-0.9393969774246216,0.0007827193476259708,-0.04402110353112221,0.000834604783449322
2024-05-13 17:24:09.667437,0.29461735504287034,-20.188681686460153,175.25001825256265,-0.34151551127433777,-0.0037143302615731955,-0.9411483407020569,0.0009879560675472021,-0.04021729156374931,0.0008475147769786417
2024-05-13 17:24:09.692270,0.29336350840207054,-20.23050805739002,175.26440263095472,-0.3407147526741028,-0.0015192190185189247,-0.9402742385864258,0.00028592380112968385,-0.03847995772957802,0.0003157923056278378
2024-05-13 17:24:09.711530,0.2934261273629378,-20.267773569501607,175.28099999063784,-0.3399006128311157,-0.0021075070835649967,-0.9420964121818542,0.0014403921086341143,-0.03578618913888931,0.000848036608658731
2024-05-13 17:24:09.735231,0.29440500552879173,-20.30141908135309,175.296272293622,-0.3433608114719391,-0.0036690738052129745,-0.9410886764526367,0.0014700666069984436,-0.03160279989242554,0.002451764652505517
2024-05-13 17:24:09.753255,0.29407995789340785,-20.33198588543619,175.31054738898732,-0.34729430079460144,-0.0039933850057423115,-0.9396443963050842,0.0014765505911782384,-0.026999903842806816,0.002445922000333667
2024-05-13 17:24:09.772375,0.29480702619447047,-20.35696730232551,175.32154399355105,-0.34503138065338135,-0.002555328421294689,-0.9404107332229614,0.002302623586729169,-0.02370571717619896,0.0016124495305120945
2024-05-13 17:24:09.795278,0.29524293100173477,-20.379522294512185,175.33185757919776,-0.34424349665641785,-0.0025260592810809612,-0.940710723400116,0.001736992853693664,-0.02165316790342331,0.0020797154866158962
2024-05-13 17:24:09.813213,0.29665862110935215,-20.399582560104513,175.34177501387262,-0.34148794412612915,-0.003783591091632843,-0.939636766910553,0.0024691831786185503,-0.01996694691479206,0.0022110475692898035
2024-05-13 17:24:09.834582,0.29878166268288897,-20.418249467106158,175.35206127876265,-0.3447473347187042,-0.004323751665651798,-0.9403478503227234,0.0013890727423131466,-0.017101828008890152,0.0020361843053251505
2024-05-13 17:24:09.839657,0.2987518072856966,-20.4354820343821,175.36643199677636,-0.34608978033065796,-0.0028809807263314724,-0.9393982887268066,0.001092753023840487,-0.015650533139705658,0.0016379294684156775
2024-05-13 17:24:09.872742,0.29893835682740255,-20.446734771039697,175.37987380906296,-0.3475758731365204,-0.0028146174736320972,-0.9385778903961182,0.001680656336247921,-0.011630835011601448,0.0001547137799207121
2024-05-13 17:24:09.896937,0.2993926711289142,-20.454459714990982,175.39420354594162,-0.34584927558898926,-0.003257163567468524,-0.9388779997825623,0.0015502611640840769,-0.008211027830839157,0.0013400166062638164
2024-05-13 17:24:09.899928,0.29967441643217724,-20.45814118695362,175.4032740371594,-0.34503060579299927,-0.0038677165284752846,-0.9393266439437866,0.001456216792576015,-0.0061313980259001255,0.0020338776521384716
2024-05-13 17:24:09.933187,0.29994687694703726,-20.458533922830892,175.4149809813968,-0.34460410475730896,-0.0036839835811406374,-0.9400234818458557,0.0013528931885957718,-0.0023653756361454725,0.0016134355682879686
2024-05-13 17:24:09.947466,0.2994079590132674,-20.458195828466977,175.4302396240026,-0.34545451402664185,-0.002827235497534275,-0.9386529326438904,0.0011067516170442104,-0.0006308217998594046,0.0017361314967274666
2024-05-13 17:24:09.975135,0.2987155219057309,-20.45822485677095,175.445962719472,-0.3449690639972687,-0.0027520295698195696,-0.9386748671531677,0.0007933962042443454,-0.0024577148724347353,0.001535883522592485
2024-05-13 17:24:09.998595,0.29871277382180705,-20.459215234200602,175.46332506034216,-0.3450930118560791,-0.0024954855907708406,-0.9389539361000061,0.0010500431526452303,-0.0022960365749895573,0.0019808344077318907
2024-05-13 17:24:10.008825,0.2989165589189967,-20.458096790724014,175.47500468382287,-0.34308913350105286,-0.003785036038607359,-0.9401763081550598,0.001079128822311759,-0.0013054250739514828,0.0014094297075644135
2024-05-13 17:24:10.035298,0.2990119948043918,-20.45688784724092,175.48437570336415,-0.3443947434425354,-0.003846724284812808,-0.9398000240325928,0.0009243490640074015,-0.0004808793601114303,0.0017640837468206882
2024-05-13 17:24:10.053256,0.29786486986937344,-20.45708592272685,175.4961372891149,-0.345847487449646,-0.0024018019903451204,-0.9385455846786499,0.0008567374898120761,-0.0009396027307957411,0.0008443899569101632
2024-05-13 17:24:10.077264,0.295922774947989,-20.45604773397301,175.5168600830567,-0.34469956159591675,-0.00041771034011617303,-0.939616858959198,0.0010832129046320915,-0.0017849415307864547,0.001448886701837182
2024-05-13 17:24:10.095256,0.295956739130854,-20.45338908283858,175.53192748036577,-0.34635603427886963,-0.0026593960355967283,-0.9405213594436646,0.0013656200608238578,0.0018012345535680652,0.0018992857076227665
2024-05-13 17:24:10.106421,0.29557118028829205,-20.446707450283014,175.54744567016004,-0.3465142548084259,-0.004119421821087599,-0.9417029619216919,0.0007872896967455745,0.0034683733247220516,0.0012619651388376951
2024-05-13 17:24:10.136657,0.2957563157673964,-20.435895260826886,175.56150219947193,-0.34547296166419983,-0.00371768930926919,-0.9412345290184021,0.0011468876618891954,0.00708787702023983,0.001815752824768424
2024-05-13 17:24:10.154649,0.29504093349311694,-20.421401599408117,175.57566801181054,-0.3452567458152771,-0.003160783089697361,-0.9410625696182251,0.00038573937490582466,0.01029932964593172,0.001097649335861206
2024-05-13 17:24:10.165792,0.29498989383732693,-20.40579461715464,175.58908250334045,-0.34948307275772095,-0.0034289793111383915,-0.9391917586326599,0.001325732795521617,0.013657285831868649,0.0014670937089249492
2024-05-13 17:24:10.196732,0.29480305081093006,-20.38390386086475,175.59869940969182,-0.3490781784057617,-0.005183699540793896,-0.9383053183555603,0.00043513262062333524,0.018634894862771034,0.0018710673321038485
2024-05-13 17:24:10.211829,0.29478426779071254,-20.35634404756375,175.60752401409948,-0.34890294075012207,-0.005594826769083738,-0.9387321472167969,0.0008884223061613739,0.023057028651237488,0.0027447096072137356
2024-05-13 17:24:10.223132,0.2911077050265416,-20.31970008266663,175.61766001482778,-0.34767410159111023,-0.004921240266412497,-0.9397559762001038,-0.001250455155968666,0.030011538416147232,0.003334446344524622
2024-05-13 17:24:10.256489,0.2875972545974195,-20.27740072113674,175.6319760913281,-0.3441927433013916,-0.0037161926738917828,-0.9392582774162292,-0.0013620017562061548,0.034649062901735306,0.0035849434789270163
2024-05-13 17:24:10.274843,0.2832181962049422,-20.230996415915673,175.64984386619687,-0.341697633266449,-0.0014313379069790244,-0.9404266476631165,-0.0017543541034683585,0.03887590765953064,0.00374332326464355
2024-05-13 17:24:10.292918,0.27900663752968885,-20.177932676253846,175.6626573010798,-0.3383293151855469,-0.0013831367250531912,-0.9417068958282471,-0.0016213397029787302,0.043272487819194794,0.0023062184918671846
2024-05-13 17:24:10.303173,0.2763477462714234,-20.12277206851682,175.68164522697245,-0.34221670031547546,-0.002044029999524355,-0.9403796792030334,-0.0008640628075227141,0.04762383550405502,0.0018242393853142858
2024-05-13 17:24:10.349376,0.2742019729745551,-19.995197795199324,175.70639783252457,-0.33973997831344604,-0.0020807755645364523,-0.9417194724082947,0.0004887167597189546,0.05511227250099182,0.0028724512085318565
2024-05-13 17:24:10.395309,0.26983323990711217,-19.858884294838795,175.7266425132245,-0.33275941014289856,-0.003157403552904725,-0.9431031346321106,0.00017695772112347186,0.05685046315193176,0.000594162498600781
2024-05-13 17:24:10.413203,0.2716293928958404,-19.785116544255363,175.7339781363931,-0.3338892161846161,-0.005907145328819752,-0.9442594051361084,0.0011305371299386024,0.06211472675204277,0.0016204535495489836
2024-05-13 17:24:10.437196,0.27156223826247744,-19.706724755603833,175.74817126948838,-0.33930259943008423,-0.003448719857260585,-0.9407957196235657,0.0004992071771994233,0.06752217561006546,0.0014861191157251596
2024-05-13 17:24:10.446787,0.2704535331415404,-19.62426388175427,175.75946840237557,-0.33856379985809326,-0.0037098731845617294,-0.9432137608528137,-0.0007594915805384517,0.0719747468829155,0.0006222550291568041
2024-05-13 17:24:10.491490,0.26392376557330244,-19.446542359550538,175.7938788954141,-0.32638683915138245,-0.0005619461880996823,-0.9462882876396179,0.0005289153777994215,0.07540814578533173,0.0029523633420467377
2024-05-13 17:24:10.499756,0.26455481101958817,-19.35472754163264,175.8054492358681,-0.3226788341999054,-0.003659459063783288,-0.9476675987243652,0.0002040271065197885,0.07551737129688263,-0.0003819511039182544
2024-05-13 17:24:10.533273,0.2653638949515438,-19.262195553851896,175.81193791557962,-0.32384172081947327,-0.006865763105452061,-0.9466745853424072,0.0002038598759099841,0.07773786038160324,0.00025480808108113706
2024-05-13 17:24:10.553301,0.2683447389157254,-19.168796132046555,175.8247240297059,-0.3308127522468567,-0.00440751388669014,-0.9454052448272705,0.004442580044269562,0.08251438289880753,0.0017497038934379816
2024-05-13 17:24:10.575139,0.27049827621668926,-19.068221596518118,175.84580199348454,-0.33031317591667175,0.00036888575414195657,-0.9452409148216248,0.0045744311064481735,0.08772800862789154,0.002408589469268918
2024-05-13 17:24:10.592808,0.27095304408545046,-18.95784403198342,175.86293210792294,-0.3252664804458618,-0.0008956502424553037,-0.9487341046333313,0.003954813349992037,0.09418841451406479,0.0016322984592989087
2024-05-13 17:24:10.615935,0.27275298569473394,-18.84250775011129,175.8790240336075,-0.31978070735931396,-0.0010959455976262689,-0.9479628801345825,0.003817096585407853,0.09764178842306137,0.00196056324057281
2024-05-13 17:24:10.635289,0.27654221989978367,-18.727501024866616,175.88179709041052,-0.3110560476779938,-0.008106065914034843,-0.9522840976715088,0.0017012847820296884,0.09652118384838104,0.001563423778861761
2024-05-13 17:24:10.653278,0.27515934671669406,-18.610658686282502,175.89033482687302,-0.312231183052063,-0.004947099834680557,-0.952303946018219,0.000580490508582443,0.09845482558012009,0.001693174708634615
2024-05-13 17:24:10.668417,0.2765930727925885,-18.49036710216753,175.89746554436653,-0.31633397936820984,-0.004525533877313137,-0.949750542640686,0.001723085530102253,0.10441923141479492,0.002813782775774598
2024-05-13 17:24:10.679632,0.27477965756795014,-18.367483461262538,175.908011356445,-0.3225060701370239,-0.004726323764771223,-0.9486706852912903,-2.5047920644283295e-06,0.10856442153453827,0.0019611779134720564
2024-05-13 17:24:10.712439,0.2709290583820761,-18.240795404989846,175.9189943006304,-0.31333181262016296,-0.0009689955040812492,-0.9505388736724854,-0.001142918481491506,0.1091877892613411,0.0007541641243733466
2024-05-13 17:24:10.728003,0.269059347457638,-18.111124263597155,175.93105641470464,-0.30456075072288513,-0.002498288406059146,-0.9542403817176819,-0.001189792761579156,0.1102854534983635,0.001247829175554216
2024-05-13 17:24:10.740676,0.26819052605087124,-17.98121065048893,175.94335075521067,-0.30180609226226807,-0.004322160966694355,-0.9556489586830139,0.0007115781772881746,0.10973748564720154,0.0005750710261054337
2024-05-13 17:24:10.772570,0.26826258988270013,-17.85029982976188,175.96086336024257,-0.30062979459762573,0.0015489193610846996,-0.9551005959510803,0.0015652886359021068,0.11220683157444,0.0008452286710962653
2024-05-13 17:24:10.788393,0.2695661688383941,-17.71805712214668,175.96880004005814,-0.30721887946128845,0.0003814604424405843,-0.9533237218856812,0.003303369041532278,0.11523519456386566,0.0004326845519244671
2024-05-13 17:24:10.815271,0.2701151452929339,-17.585466074883804,175.9792365691099,-0.3087242841720581,-0.0017945051658898592,-0.9523699283599854,0.002360409125685692,0.1188012883067131,0.001173415337689221
2024-05-13 17:24:10.832327,0.2696215040428418,-17.441752064557566,175.987596720654,-0.3001391887664795,-0.0033398496452718973,-0.9587474465370178,0.00041748961666598916,0.12279216200113297,0.0015341162215918303
2024-05-13 17:24:10.856662,0.26600417182537955,-17.291851610390587,175.99188607945277,-0.2883813977241516,-0.006996811367571354,-0.9574916958808899,-0.0020486279390752316,0.12632595002651215,0.002338510239496827
2024-05-13 17:24:10.874740,0.2646008347552064,-17.143317194057612,176.00136638202076,-0.28631025552749634,-0.0015710394363850355,-0.9597364664077759,-0.0011719835456460714,0.12549623847007751,0.0005310939159244299
2024-05-13 17:24:10.896986,0.2628880580991199,-16.996280296700164,176.0090981561612,-0.28711453080177307,-0.0007471706485375762,-0.9577502608299255,-0.000758926325943321,0.125468447804451,-0.001992601901292801
2024-05-13 17:24:10.917247,0.2605694489997386,-16.853554956256286,176.0198078927798,-0.2944733202457428,-0.002182723954319954,-0.9567530155181885,-0.001933523453772068,0.12648901343345642,-0.0014372195582836866
2024-05-13 17:24:10.933258,0.2597871255355077,-16.70675199287791,176.02859151605242,-0.2912733256816864,-0.004553105216473341,-0.9580731987953186,0.00046124643995426595,0.12908847630023956,-0.00023460801457986236
2024-05-13 17:24:10.938447,0.26365464011174805,-16.553397170538197,176.04480638514204,-0.2844274342060089,-0.004301052540540695,-0.9605193138122559,0.003800476435571909,0.13225877285003662,0.0019116578623652458
2024-05-13 17:24:10.977272,0.26644093040629013,-16.388518111521382,176.0628517449292,-0.27449220418930054,-0.0022377376444637775,-0.9617767333984375,0.004199343733489513,0.13847999274730682,0.002533458173274994
2024-05-13 17:24:10.990976,0.26854350809274335,-16.21731088223855,176.06908087745225,-0.27612102031707764,-0.0073655033484101295,-0.9647029042243958,0.002193948719650507,0.14629557728767395,0.0028350921347737312
2024-05-13 17:24:11.013130,0.2697353227420577,-16.048391766327672,176.06662200935105,-0.27773317694664,-0.006803759373724461,-0.961681604385376,0.00022202939726412296,0.14672701060771942,0.0007289779605343938
2024-05-13 17:24:11.037279,0.26968919228473365,-15.882862131792413,176.06995514166601,-0.27103447914123535,-0.0033290248829871416,-0.9620389938354492,0.0007195968646556139,0.14383108913898468,0.0015427148900926113
2024-05-13 17:24:11.053442,0.26619744483454977,-15.71317461959991,176.09454382267808,-0.2678229808807373,0.005013707559555769,-0.9642632007598877,0.0007627691957168281,0.14592605829238892,0.0010924505768343806
2024-05-13 17:24:11.073081,0.26541194639957183,-15.543540041373472,176.10519891778327,-0.26266783475875854,0.000567042559850961,-0.9662457704544067,0.0008684834465384483,0.14660486578941345,-0.0002913067291956395
2024-05-13 17:24:11.097376,0.2662114520584336,-15.373830331066166,176.10194774773836,-0.2627088725566864,-0.006951460149139166,-0.9637119174003601,-0.00046264054253697395,0.1457686424255371,-0.0005449329037219286
2024-05-13 17:24:11.115930,0.2674029198622041,-15.203948158482316,176.1136410315974,-0.2606145441532135,-0.0028754230588674545,-0.9638375639915466,0.0022359255235642195,0.1490589678287506,0.004407460801303387
2024-05-13 17:24:11.133268,0.2680401818478516,-15.022155843533257,176.1246922776745,-0.2635906934738159,-0.00253972876816988,-0.968020498752594,0.0020930790342390537,0.1568395048379898,0.0021452587097883224
2024-05-13 17:24:11.155015,0.2700487110310849,-14.833861188494344,176.13429552364752,-0.2536628842353821,0.00013242766726762056,-0.9673058390617371,0.0022207293659448624,0.16163022816181183,-0.0017016979400068521
2024-05-13 17:24:11.175117,0.26990116827284205,-14.646398108986883,176.13693197666717,-0.2454041838645935,-0.0058628832921385765,-0.9701789617538452,0.0002692165144253522,0.15872694551944733,-0.0005986519390717149
2024-05-13 17:24:11.193270,0.2681209434987017,-14.466473850775822,176.15571499688468,-0.24375371634960175,0.0008775152382440865,-0.9699018001556396,-1.0777381248772144e-05,0.154954195022583,0.0006679169600829482
2024-05-13 17:24:11.209411,0.2678372505243082,-14.281945191290527,176.15787333666242,-0.2429245114326477,-0.004615759011358023,-0.9712633490562439,-0.000369381217751652,0.15887627005577087,-0.0032020495273172855
2024-05-13 17:24:11.235140,0.26486758565880714,-14.096251984551744,176.15214963813796,-0.24660684168338776,-0.00709243630990386,-0.9711047410964966,-0.004294159822165966,0.16227956116199493,-0.003128047101199627
2024-05-13 17:24:11.253268,0.265338388463862,-13.905972305785296,176.1498137134418,-0.24348394572734833,-0.011143987998366356,-0.9709566831588745,-0.0009380521369166672,0.16653981804847717,0.002350765513256192
2024-05-13 17:24:11.271910,0.26482671124549284,-13.706122678218016,176.16583733723465,-0.23980000615119934,0.001629140810109675,-0.9740787744522095,0.0014646798372268677,0.1723521649837494,0.001004406251013279
2024-05-13 17:24:11.295202,0.264637893867539,-13.498876809553257,176.1743887340755,-0.2280186116695404,-0.0010149816516786814,-0.9740507006645203,0.0012444709427654743,0.17710618674755096,0.0007725792238488793
2024-05-13 17:24:11.312513,0.262448764877697,-13.290598728550181,176.1790605834678,-0.2222876250743866,-0.0012107138754799962,-0.9780780076980591,-0.000556482991669327,0.17464880645275116,-0.00044020236236974597
2024-05-13 17:24:11.334657,0.26712744445915576,-13.099073394033853,176.18098669681373,-0.22176258265972137,-0.005463897716253996,-0.9700452089309692,0.0023734811693429947,0.16777406632900238,0.0026842986699193716
2024-05-13 17:24:11.355242,0.26328719727874256,-12.900350747679626,176.19879983016915,-0.21876144409179688,0.0006449836073443294,-0.97772616147995,0.0008726578089408576,0.17084553837776184,0.0023250849917531013
2024-05-13 17:24:11.372648,0.26551800109469215,-12.697583775563103,176.20259741534767,-0.22419805824756622,-0.003386380383744836,-0.9736307859420776,0.00032370572444051504,0.17742782831192017,-0.0016668481985107064
2024-05-13 17:24:11.396986,0.26595753443995307,-12.491789322096972,176.21323885007453,-0.21622134745121002,-0.004506727214902639,-0.9767231345176697,0.0018565100617706776,0.1771860420703888,0.0009092924301512539
2024-05-13 17:24:11.415170,0.2705912841832778,-12.284426486442678,176.2283745492753,-0.21066486835479736,-0.0007614890346303582,-0.9755687117576599,0.00545270973816514,0.17954976856708527,0.003895103931427002
2024-05-13 17:24:11.433135,0.2729795291956815,-12.070931848461004,176.2391252670289,-0.20831260085105896,-0.004039925057440996,-0.9833586812019348,0.0027242302894592285,0.18489135801792145,0.00277963699772954
2024-05-13 17:24:11.449142,0.2712579746792945,-11.848037162634101,176.23584677622728,-0.19989562034606934,-0.006423937622457743,-0.9792407155036926,-0.0017077827360481024,0.18985751271247864,-0.002036074409261346
2024-05-13 17:24:11.475320,0.2769193210471624,-11.63402257650186,176.225027756582,-0.19963635504245758,-0.013234331272542477,-0.9821911454200745,0.0005475793732330203,0.18589763343334198,0.0011804252862930298
2024-05-13 17:24:11.492667,0.26704193369239837,-11.419556344110752,176.24861922997522,-0.19595345854759216,0.002677787560969591,-0.9805791974067688,-0.0032455725595355034,0.1857411116361618,0.00019858754239976406
2024-05-13 17:24:11.508116,0.2608594652351997,-11.202010550177615,176.26304458950227,-0.1953134685754776,0.0033618053421378136,-0.9801915287971497,-0.0030116320122033358,0.1898026019334793,-0.003564454847946763
2024-05-13 17:24:11.535268,0.2630721530415929,-10.980962576747554,176.26294896685388,-0.18768341839313507,-0.003933249972760677,-0.9830028414726257,0.0022009224630892277,0.1905791014432907,0.0006050090305507183
2024-05-13 17:24:11.552515,0.26482572406971433,-10.763241759216935,176.26334511782576,-0.18164874613285065,-0.005582801532000303,-0.9812315106391907,0.00022186565911397338,0.18791848421096802,0.0013010783586651087
2024-05-13 17:24:11.576577,0.26611967139146153,-10.546878441783855,176.2676891181379,-0.17895016074180603,-0.004104612395167351,-0.9870918989181519,0.002246118150651455,0.187196746468544,3.41008126270026e-05
2024-05-13 17:24:11.595217,0.26136612653339714,-10.325741675894584,176.28770157240604,-0.17005625367164612,0.005809594411402941,-0.9865133166313171,0.001269827364012599,0.1890110969543457,-0.0006494915578514338
2024-05-13 17:24:11.604042,0.26792390854940273,-10.106615546942235,176.28886270456493,-0.17253659665584564,-0.002079297788441181,-0.9827624559402466,0.004501805175095797,0.1891385316848755,0.00028045993531122804
2024-05-13 17:24:11.637268,0.270428827066652,-9.887077899092393,176.29403998795578,-0.17878399789333344,-0.003196468809619546,-0.9867092967033386,0.003047362668439746,0.19316482543945312,0.0005996061372570693
2024-05-13 17:24:11.649966,0.276022965440304,-9.655110160726773,176.2801200624273,-0.17223073542118073,-0.01462302915751934,-0.98366779088974,0.0013281522551551461,0.20165318250656128,-0.0005290195113047957
2024-05-13 17:24:11.673156,0.28127823571767346,-9.418643035245408,176.28229206258337,-0.16555176675319672,-0.007804512046277523,-0.9905911684036255,0.004319514147937298,0.2045096755027771,0.0019432755652815104
2024-05-13 17:24:11.696647,0.2776997768815421,-9.180897810615605,176.3102821778021,-0.1507101058959961,0.002801453461870551,-0.9872369170188904,0.0012417893158271909,0.2026488184928894,0.00357309402897954
2024-05-13 17:24:11.709700,0.2756106194495909,-8.94810020426583,176.31708504621542,-0.14882320165634155,0.0004443301586434245,-0.9884641766548157,0.0002505463198758662,0.19973166286945343,-0.0008605339680798352
2024-05-13 17:24:11.719671,0.2753078766507154,-8.719102744415519,176.32500806565264,-0.1456957906484604,-0.001164608052931726,-0.9894244074821472,0.0011999927228316665,0.19871342182159424,0.000659846409689635
2024-05-13 17:24:11.757264,0.2796445665259975,-8.48809379385464,176.3128776496867,-0.15083001554012299,-0.011045047082006931,-0.9869005680084229,0.0013092526933178306,0.20101067423820496,-0.0009497960563749075
