sTimestamp,sRoll,sPitch,sYaw,sAcc_x,sAcc_y,sAcc_z,sGyro_x,sGyro_y,sGyro_z
2024-05-13 17:37:35.136855,0.33316985088490486,0.05349105337177799,171.3622745769914,0.0056014759466052055,-0.004029632546007633,-1.0006879568099976,0.0008824092801660299,-0.0024619433097541332,0.000903879466932267
2024-05-13 17:37:35.149621,0.3327395756476205,0.053462782124905815,171.36235653926144,0.005797178018838167,-0.003900429466739297,-1.0006887912750244,0.0006884613540023565,-0.0027100087609142065,0.0009394665248692036
2024-05-13 17:37:35.182685,0.3328588371538313,0.05361336978681675,171.3604987278072,0.005946460645645857,-0.003954602871090174,-1.0007107257843018,0.0004782798350788653,-0.0015419108094647527,0.000784584553912282
2024-05-13 17:37:35.192306,0.33304210500308445,0.05285655614532091,171.35741148230235,0.005640469957143068,-0.004111408721655607,-1.000374674797058,0.0002685229410417378,-0.0028663678094744682,0.0010808790102601051
2024-05-13 17:37:35.219385,0.3331250010880502,0.0537267982847959,171.3534636329621,0.005723484326153994,-0.004139738157391548,-1.00050687789917,0.0002447616425342858,-0.0015381145058199763,0.0008310835110023618
2024-05-13 17:37:35.243636,0.3332300419269656,0.053714261819419885,171.34931087794672,0.0057951039634644985,-0.00398655841127038,-1.0006401538848877,0.0005393112078309059,-0.0009557781158946455,0.0009383971337229013
2024-05-13 17:37:35.261311,0.33242045106690754,0.05358015599094558,171.34410627379918,0.006053308956325054,-0.004162902012467384,-1.0004340410232544,-0.0002964831655845046,-0.0010715627577155828,0.00045769562711939216
2024-05-13 17:37:35.279412,0.33264419312307836,0.053791474973552765,171.33771321673603,0.005634660366922617,-0.00407767528668046,-1.001041054725647,0.0005351438303478062,-0.0016847248189151287,0.0013294713571667671
2024-05-13 17:37:35.293741,0.3332049890065334,0.05433975106689835,171.32539155547335,0.006049942225217819,-0.004200289957225323,-1.000144124031067,0.0009220733190886676,-0.0011019747471436858,0.0005635598790831864
2024-05-13 17:37:35.321380,0.33312761576984184,0.053924483569489506,171.3218671778616,0.006095833145081997,-0.0040339878760278225,-1.0011060237884521,0.0010069652926176786,-0.0011491619516164064,0.0013280445709824562
2024-05-13 17:37:35.339651,0.33326648738949,0.054563096251725784,171.31720898884765,0.005985376890748739,-0.004095891024917364,-1.0005841255187988,-0.00015487874043174088,-0.0007980684749782085,0.0016879873583093286
2024-05-13 17:37:35.368657,0.3337388109788522,0.055486525821319604,171.31518725285335,0.0059299650602042675,-0.0037487230729311705,-1.0009722709655762,0.0005177657585591078,-0.0011808822164312005,0.0009555553551763296
2024-05-13 17:37:35.381652,0.333655407965784,0.05544768912557507,171.3140124603161,0.0056415158323943615,-0.004154454451054335,-1.000959038734436,0.0006139625911600888,-0.0014055464416742325,0.0007610818138346076
2024-05-13 17:37:35.399301,0.3342143895802408,0.05568722265914823,171.31274204513048,0.005792813375592232,-0.0038733193650841713,-1.0006734132766724,0.00044057166087441146,-0.0014714139979332685,0.0013035146985203028
2024-05-13 17:37:35.423394,0.3345879955917552,0.05588615858883147,171.30891713919527,0.00543620903044939,-0.0038018974009901285,-1.001287579536438,0.000985609251074493,-0.0017395023023709655,0.0020554768852889538
2024-05-13 17:37:35.441577,0.3345211344430831,0.05528887388715906,171.3053791012052,0.005541721824556589,-0.003981527406722307,-1.000939965248108,0.000956274860072881,-0.0020332233980298042,0.001447195652872324
2024-05-13 17:37:35.451899,0.33485173160716764,0.05468769717827893,171.30436823320804,0.00551709346473217,-0.0038697891868650913,-1.0011398792266846,0.0012032737722620368,-0.0019005693029612303,0.0015961615135893226
2024-05-13 17:37:35.482916,0.33583557233234035,0.055091805587327,171.3021689122953,0.005613942164927721,-0.004177020397037268,-1.000772476196289,0.0015244358219206333,-0.0009162165224552155,0.001764317974448204
2024-05-13 17:37:35.501423,0.33598372874039145,0.05574675669570775,171.3013219688382,0.005742025561630726,-0.0038212642539292574,-1.0009690523147583,0.0012651713332161307,-0.0018150107935070992,0.0016231532208621502
2024-05-13 17:37:35.511631,0.3365071186659701,0.05652605193153712,171.2965681571759,0.005407023709267378,-0.004153536632657051,-1.0009386539459229,0.0006465346086770296,-0.0006403403822332621,0.0016176227945834398
2024-05-13 17:37:35.543616,0.3358235928208664,0.0563986462251539,171.28637751493423,0.005507718771696091,-0.004003789275884628,-1.0009045600891113,0.00025070615811273456,-0.0005240846076048911,0.0009807344758883119
2024-05-13 17:37:35.556928,0.33581764308576906,0.0560367462507424,171.2833995524561,0.005455361679196358,-0.003931500483304262,-1.001205563545227,0.0005387224955484271,-0.0019197175279259682,0.0013870641123503447
2024-05-13 17:37:35.579527,0.3358290089474348,0.05622659082511437,171.27983419370935,0.005413311067968607,-0.00391198368743062,-1.0005807876586914,0.0010149155277758837,-0.0015014114324003458,0.00203866814263165
2024-05-13 17:37:35.603752,0.3358321305573289,0.055063347577469716,171.27756657090492,0.005511439871042967,-0.004001360386610031,-1.0010550022125244,0.0005957011599093676,-0.001948342309333384,0.0006262362003326416
2024-05-13 17:37:35.618207,0.3349582398695375,0.05502107577682034,171.27532626885716,0.0057196058332920074,-0.004237332846969366,-1.0007474422454834,0.0001260016142623499,-0.0010435087606310844,0.0007800216553732753
2024-05-13 17:37:35.639712,0.33494732757512136,0.05500780226466378,171.27184287238043,0.006164927966892719,-0.004044296219944954,-1.001114010810852,0.0009402167634107172,-0.001167571870610118,0.001968196826055646
2024-05-13 17:37:35.662895,0.33509030798044204,0.05463712442995174,171.26894687217236,0.00585141172632575,-0.004056436009705067,-1.0011367797851562,0.0009597647003829479,-0.0022839470766484737,0.001780357793904841
2024-05-13 17:37:35.681024,0.33552237080629826,0.054601422684314546,171.26635140028776,0.005898283328860998,-0.004151178523898125,-1.000658631324768,0.001280185068026185,-0.0019028419628739357,0.0010754527756944299
2024-05-13 17:37:35.699415,0.33527533673784066,0.055459541905023425,171.26181615467885,0.006209544371813536,-0.0038003241643309593,-1.0012494325637817,0.0007099549984559417,-0.0017068751621991396,0.0007531020673923194
2024-05-13 17:37:35.723700,0.33575214263884573,0.05599109604109438,171.2571169845299,0.005956968292593956,-0.004005517344921827,-1.0006259679794312,0.0005170255317352712,-0.0010928177507594228,0.001232785522006452
2024-05-13 17:37:35.733313,0.33554259456954383,0.05661631181420178,171.2545624937803,0.006099181715399027,-0.003665353637188673,-1.0012576580047607,0.0012786712031811476,-0.0017335026059299707,0.002143421210348606
2024-05-13 17:37:35.759150,0.3353734406658802,0.0563458256508987,171.25092883314187,0.00571412593126297,-0.004090507980436087,-1.0010124444961548,0.001522649428807199,-0.0022724817972630262,0.0029233815148472786
2024-05-13 17:37:35.783128,0.3356571336402738,0.05552843743621196,171.2468170592615,0.005824788939207792,-0.003999723121523857,-1.0007944107055664,0.0010386871872469783,-0.0020363912917673588,0.0021018984261900187
2024-05-13 17:37:35.792310,0.3358242064706746,0.05540912590420161,171.23983660592975,0.0059315841645002365,-0.0039333775639534,-1.0012812614440918,0.0006280127563513815,-0.002023011911660433,0.0009331038454547524
2024-05-13 17:37:35.818752,0.33500194240805503,0.0553993575330693,171.23949509647125,0.0058553521521389484,-0.0038563827984035015,-1.0004446506500244,-0.0002517383545637131,-0.0017949314787983894,0.001503973500803113
2024-05-13 17:37:35.837917,0.33404427518122515,0.05541940120343638,171.23398996400022,0.0059212022460997105,-0.0038565739523619413,-1.0012296438217163,0.0002937571262009442,-0.0016398060834035277,0.0008030295139178634
2024-05-13 17:37:35.846253,0.3340087635336264,0.055309727975479415,171.2308753977387,0.005711681209504604,-0.004286972340196371,-1.0007015466690063,0.0006865805480629206,-0.001805872074328363,0.00137335155159235
2024-05-13 17:37:35.879753,0.33391663602111055,0.05485379617311453,171.22897660514943,0.005955329164862633,-0.004026530310511589,-1.0009644031524658,0.00027188987587578595,-0.0012978209415450692,0.00043035473208874464
2024-05-13 17:37:35.899499,0.3335408955754805,0.05467899268915113,171.22610792569805,0.005783923901617527,-0.004091171082109213,-1.0006619691848755,-0.00036549477954395115,-0.001884011784568429,0.0009419566486030817
2024-05-13 17:37:35.921808,0.33331968815982205,0.05447120886304795,171.22153169895412,0.0055627101100981236,-0.0038620142731815577,-1.0006023645401,0.0004703099257312715,-0.0016837206203490496,0.0009186452371068299
2024-05-13 17:37:35.939758,0.33321408703195127,0.05547356580417377,171.2191684535013,0.00564916618168354,-0.0037832395173609257,-1.0008476972579956,0.00047861557686701417,-0.00036524501047097147,0.0018190962728112936
2024-05-13 17:37:35.962281,0.3328657207038542,0.05522202941375351,171.214455622974,0.005719250999391079,-0.004140207078307867,-1.0005741119384766,0.000734604021999985,-0.0004936863551847637,0.0013620705576613545
2024-05-13 17:37:35.981657,0.33303303365809306,0.05561468858480321,171.2111088302807,0.005897977855056524,-0.0040442622266709805,-1.0005789995193481,0.0016281246207654476,-0.0015528479125350714,0.0015704445540904999
2024-05-13 17:37:35.999136,0.3325787727174343,0.05571910576875044,171.20854067915275,0.005453420802950859,-0.004228960257023573,-1.0006507635116577,7.362513861153275e-05,-0.0017115201335400343,0.00125591061078012
2024-05-13 17:37:36.015390,0.3333553865704059,0.055967230399639,171.20940128298818,0.005808564368635416,-0.004019260872155428,-1.0006990432739258,0.0012199312914162874,-0.0011758692562580109,0.001068005571141839
2024-05-13 17:37:36.046874,0.3330822857253112,0.05604856567965769,171.20150558430765,0.005787369329482317,-0.003580791410058737,-1.0004618167877197,0.0006708769360557199,-0.001365098636597395,0.0009060605661943555
2024-05-13 17:37:36.059605,0.3329735629875463,0.055820878255426275,171.1939513950856,0.005782609339803457,-0.0040935492143034935,-1.000698447227478,0.001002331729978323,-0.0015015326207503676,0.001036821398884058
2024-05-13 17:37:36.075559,0.3323331527115783,0.05551629117207271,171.18994890423198,0.005815588869154453,-0.003793609794229269,-1.0007214546203613,0.00014131292118690908,-0.002198308240622282,0.0008291139383800328
2024-05-13 17:37:36.086963,0.3326084146712151,0.05490678683508833,171.18806377202105,0.00583637272939086,-0.004019635729491711,-1.0008985996246338,0.0009901493322104216,-0.0020276084542274475,0.0012068512151017785
2024-05-13 17:37:36.119054,0.3325938204779495,0.05536872506845672,171.1875036965091,0.005950756836682558,-0.003915164619684219,-1.0006074905395508,0.0006692850147373974,-0.001392331556417048,0.0013490174897015095
2024-05-13 17:37:36.134171,0.3328116928403023,0.05515019236554937,171.18399297927573,0.005842646583914757,-0.003924683667719364,-1.0010813474655151,0.0009978252928704023,-0.001382180256769061,8.5875675722491e-05
2024-05-13 17:37:36.161749,0.332323067510382,0.0551617416551469,171.1810423375543,0.0059575666673481464,-0.003923551645129919,-1.0004990100860596,0.000565722759347409,-0.0007488369010388851,0.0004096271004527807
2024-05-13 17:37:36.178805,0.332370158463058,0.05503495626867854,171.17932112988345,0.0059075686149299145,-0.00386079796589911,-1.001012921333313,-8.081263513304293e-05,-0.001644894015043974,0.0004861302732024342
2024-05-13 17:37:36.203815,0.33202939605649784,0.05439960860362852,171.1809740356626,0.005646976642310619,-0.004169047810137272,-1.0009944438934326,-0.0002846206189133227,-0.0011471064062789083,0.001143324188888073
2024-05-13 17:37:36.213929,0.33163812760267664,0.054734204496626505,171.18141116776948,0.005872906185686588,-0.0037722645793110132,-1.0007271766662598,-8.009617158677429e-05,-0.0013400268508121371,0.0005862999241799116
2024-05-13 17:37:36.224192,0.3319249421869643,0.055113029866564286,171.177695544861,0.005968609359115362,-0.004055886995047331,-1.0011810064315796,8.563661685911939e-05,-0.0010825004428625107,0.002055421005934477
2024-05-13 17:37:36.269764,0.3314930928045196,0.05525647717934778,171.17460829935615,0.0061798556707799435,-0.003975326661020517,-1.0006223917007446,0.0004692095681093633,-0.0017908664885908365,0.0021743355318903923
2024-05-13 17:37:36.274480,0.33071266365056634,0.05608112914013426,171.16656233651386,0.006146293133497238,-0.003918974194675684,-1.0009232759475708,-0.00016519834753125906,-0.0016533317975699902,0.0013694071676582098
2024-05-13 17:37:36.299752,0.32974597843959796,0.055730048078646344,171.15874860010337,0.006235294975340366,-0.004146207589656115,-1.0004152059555054,0.00013346153718885034,-0.0024180947802960873,0.001265531056560576
2024-05-13 17:37:36.323749,0.32930455078405946,0.056113425796346365,171.1553471658967,0.005914580542594194,-0.003989501390606165,-1.0004607439041138,6.878696149215102e-05,-0.0013197646476328373,0.001480872044339776
2024-05-13 17:37:36.337072,0.3291303009189448,0.05605140047496751,171.15266973174207,0.005765587091445923,-0.0043308609165251255,-1.0006681680679321,-1.2286967830732465e-05,-0.00224379007704556,0.002406476531177759
2024-05-13 17:37:36.359733,0.32880725431554436,0.05647363156367859,171.14850331634835,0.006031281780451536,-0.003846327541396022,-1.000090479850769,0.00068177271168679,-0.0011661242460832,0.00044691620860248804
2024-05-13 17:37:36.383772,0.3283096910427648,0.05673031727640281,171.14421395754957,0.005688728764653206,-0.0038394613657146692,-1.0008684396743774,0.0004413572314660996,-0.0017165651079267263,0.0010230073239654303
2024-05-13 17:37:36.399591,0.3272469562965931,0.0563670032393897,171.14308014614735,0.005737372674047947,-0.003878749441355467,-1.0002644062042236,-6.254125037230551e-05,-0.0021797099616378546,0.002014774829149246
2024-05-13 17:37:36.419666,0.3269953865556398,0.05670392366454174,171.1465772030024,0.0057894159108400345,-0.0037886297795921564,-1.000591516494751,-0.0003948207013309002,-0.0015270819421857595,0.0015475646359845996
2024-05-13 17:37:36.443634,0.32650059804721054,0.05697030104217223,171.1468094294342,0.005879891570657492,-0.003853639354929328,-1.000738263130188,0.0005110820638947189,-0.0012482104357331991,0.0012543433113023639
2024-05-13 17:37:36.452445,0.3272197689420453,0.05628427390708925,171.14941856169713,0.005856851581484079,-0.003734491067007184,-1.0004618167877197,0.001199031830765307,-0.0020691733807325363,0.0018316492205485702
2024-05-13 17:37:36.479555,0.3262032713749034,0.05602711461679562,171.15161788260988,0.005542519968003035,-0.003985914401710033,-1.0009382963180542,0.00045309399138204753,-0.0015159479808062315,0.00145786686334759
2024-05-13 17:37:36.503144,0.32675014007575404,0.05630586504219015,171.15103048634126,0.005822810344398022,-0.004098362755030394,-1.0008118152618408,0.0007992181926965714,-0.001549266860820353,0.0009025241015478969
2024-05-13 17:37:36.513850,0.3265096427117755,0.05590495828431553,171.14935025980543,0.00563200656324625,-0.004028890747576952,-1.0010656118392944,0.0005039814859628677,-0.0015190206468105316,0.0003538794117048383
2024-05-13 17:37:36.524472,0.3265733822505535,0.055566803889440394,171.14891312769856,0.0059008002281188965,-0.004049527924507856,-1.0007652044296265,0.0006459110300056636,-0.0019799869041889906,0.0008221779717132449
2024-05-13 17:37:36.563602,0.32619982959989197,0.05532546942708218,171.14904973148194,0.005829344503581524,-0.0038913132157176733,-1.0010731220245361,0.0009424682939425111,-0.0013163448311388493,0.0012991033727303147
2024-05-13 17:37:36.571740,0.3258206473792505,0.05499516241263529,171.15134467504308,0.005670486483722925,-0.003992991987615824,-1.0012779235839844,0.0007500415085814893,-0.0013934776652604342,0.0018167257076129317
2024-05-13 17:37:36.599750,0.3255758011057614,0.055152250093438965,171.1557159961119,0.005804154556244612,-0.003605686128139496,-1.0009328126907349,1.1203675057913642e-05,-0.0011924098944291472,0.001817689510062337
2024-05-13 17:37:36.619181,0.32557401351718956,0.05461766105885985,171.15690444902748,0.005572436843067408,-0.004052170552313328,-1.0009108781814575,0.0008492562919855118,-0.001958082662895322,0.0009935443522408605
2024-05-13 17:37:36.626206,0.32552302722225246,0.05434603430732623,171.16236860036346,0.005775266792625189,-0.00397498020902276,-1.0009496212005615,0.00046816759277135134,-0.0014906786382198334,0.0014227339997887611
2024-05-13 17:37:36.659750,0.325863629546254,0.05433618922996789,171.16361169479242,0.0058644842356443405,-0.0037264300044625998,-1.0006179809570312,0.0005624874029308558,-0.0014343319926410913,0.0011018970981240273
2024-05-13 17:37:36.680780,0.3263690635448349,0.053606132721143444,171.16727267618754,0.005611231084913015,-0.003802295308560133,-1.000367522239685,0.0013487304095178843,-0.001656542532145977,0.002808612072840333
2024-05-13 17:37:36.701781,0.3169456169656123,0.059804015794720944,171.17374769552072,-0.0011494375066831708,-0.007424372248351574,-1.0959370136260986,-0.006452951580286026,0.007397940382361412,0.0017452457686886191
2024-05-13 17:37:36.719774,0.3174803994332831,0.06983077351693932,171.1650733552748,0.004138590767979622,-0.005583054851740599,-1.0421092510223389,-0.0008134022355079651,0.004939884878695011,-0.00034837069688364863
2024-05-13 17:37:36.743498,0.3153803563873422,0.07988038969451478,171.16564709116508,0.006633630953729153,-0.0029441076330840588,-1.010412573814392,-0.00034506278461776674,0.007178331259638071,0.0024546317290514708
2024-05-13 17:37:36.761757,0.3220771167447017,0.0912212384604466,171.16607056289362,0.01116671971976757,-0.0016272515058517456,-1.0074272155761719,0.004995180293917656,0.005192911718040705,0.0007017664611339569
2024-05-13 17:37:36.778979,0.31787793778731904,0.10313574307538015,171.16426739295275,0.0011543934233486652,-0.001333274645730853,-0.9950105547904968,0.00044187475577928126,0.010850697755813599,0.001828676089644432
2024-05-13 17:37:36.797159,0.3242347628313382,0.11940035114999119,171.1502655051542,0.0071859778836369514,-0.008450808003544807,-1.0071302652359009,0.003450107527896762,0.010478492826223373,0.0012614743318408728
2024-05-13 17:37:36.821595,0.3251455525489035,0.12617935392186852,171.1565082980556,0.006203790660947561,-0.0029813703149557114,-0.9983187317848206,0.001982194371521473,0.006715370342135429,0.0016514139715582132
2024-05-13 17:37:36.838863,0.3279248792521433,0.14075100222713535,171.1706058085025,0.009725954383611679,-0.003350873477756977,-1.0037082433700562,0.003326576668769121,0.009209553711116314,0.0030712569132447243
2024-05-13 17:37:36.855419,0.32712446645878246,0.15097250038197846,171.1850038472729,0.00460860226303339,-0.0032409431878477335,-1.0022512674331665,0.0008155865361914039,0.008038423955440521,0.00024203876091632992
2024-05-13 17:37:36.881755,0.32989405480636974,0.15956702613218335,171.1765753938371,0.010841615498065948,-0.007007686886936426,-1.0029641389846802,0.0009486436611041427,0.0033453302457928658,-0.002905055182054639
2024-05-13 17:37:36.899104,0.3261970014746888,0.16005321020308394,171.1759333560551,0.006807865109294653,-0.004691284615546465,-1.0009831190109253,-0.0025246876757591963,0.0008971472852863371,0.0016500374767929316
2024-05-13 17:37:36.923797,0.3228417244057729,0.17072395337841406,171.19175207417288,0.005454208701848984,0.003222142346203327,-0.9963527917861938,0.0008222617907449603,0.007063522469252348,0.0020630904473364353
2024-05-13 17:37:36.947738,0.32386780024600864,0.18616299568763287,171.18686165872714,0.0073363762348890305,-0.0038708457723259926,-1.002377986907959,0.0005522242863662541,0.011149758473038673,0.00028333705267868936
2024-05-13 17:37:36.959748,0.3276399589781333,0.19834403776275558,171.1881457342911,0.010034643113613129,-0.006323919165879488,-0.9976087212562561,0.002683378057554364,0.00858442485332489,0.0020969633478671312
2024-05-13 17:37:36.983081,0.3307292855562418,0.2043647828150557,171.1930224893585,0.010706918314099312,-0.005134871695190668,-1.0029257535934448,0.002384262392297387,0.003961322363466024,0.002701902762055397
2024-05-13 17:37:37.001192,0.3336380390081681,0.21176021015952667,171.20946958487988,0.008697032928466797,-0.0011367484694346786,-0.9964863061904907,0.004621535539627075,0.00542543176561594,0.002685318235307932
2024-05-13 17:37:37.014978,0.33890443502336526,0.2224696132727761,171.2067101884552,0.006946689449250698,-0.00701460987329483,-1.0048781633377075,0.003887017723172903,0.007286627311259508,0.0004233585495967418
2024-05-13 17:37:37.043419,0.339717120812891,0.2255656366379224,171.20325411273518,0.005077040754258633,-0.005602250806987286,-1.001469373703003,0.0012543159537017345,0.003545501735061407,-0.0011717705056071281
2024-05-13 17:37:37.061611,0.3415960098040263,0.23307526954779273,171.20030347101374,0.008929897099733353,-0.003216920420527458,-1.0013279914855957,0.0020079808309674263,0.004596203099936247,-5.839593359269202e-05
2024-05-13 17:37:37.073968,0.34287162767280555,0.24519973577863807,171.2069150941303,0.010930743999779224,-0.0029648698400706053,-0.9976966977119446,0.0025720598641783,0.007947576232254505,0.001730359741486609
2024-05-13 17:37:37.103725,0.34431639944524833,0.258994690189654,171.20590422613313,0.007098544389009476,-0.004331966862082481,-1.0019737482070923,0.0027323737740516663,0.01025734469294548,0.0010093016317114234
2024-05-13 17:37:37.118993,0.34890191097755985,0.2703383537405758,171.20330875424852,0.010111221112310886,-0.008098931983113289,-1.0015616416931152,0.0025058570317924023,0.007347987499088049,0.0013042285572737455
2024-05-13 17:37:37.139397,0.35124031695336366,0.2831714787782364,171.21710573637196,0.012310379184782505,-0.0036878895480185747,-0.99974125623703,0.0022932023275643587,0.008829018101096153,0.002202435629442334
2024-05-13 17:37:37.169702,0.3533851297548799,0.29390015849959256,171.2312852090889,0.01021059975028038,-0.003678304608911276,-0.9990969300270081,0.002644238295033574,0.008532657288014889,0.0014388300478458405
2024-05-13 17:37:37.180929,0.355687730598394,0.30404072158081363,171.23627124718303,0.009095974266529083,-0.005392251070588827,-1.0033446550369263,0.0024523185566067696,0.007037823554128408,0.0006537053268402815
2024-05-13 17:37:37.199516,0.3551141281102451,0.31175995592083877,171.2354789452393,0.010156312957406044,-0.006113255396485329,-1.0062249898910522,-0.00010097792255692184,0.004702489823102951,0.0009213368175551295
2024-05-13 17:37:37.222904,0.35183851879469513,0.3202351801441932,171.24393471943176,0.008587545715272427,0.00037777185207232833,-1.0004990100860596,3.87656909879297e-05,0.006471633445471525,-0.00025541495415382087
2024-05-13 17:37:37.234343,0.352381332070726,0.3328245794862754,171.24594279504774,0.010819334536790848,-0.002917095087468624,-1.0033677816390991,0.00045805246918462217,0.008388949558138847,0.0007310598739422858
2024-05-13 17:37:37.244402,0.35232719748546837,0.34254569958334896,171.2475957008269,0.013069266453385353,-0.004613381344825029,-1.0049220323562622,0.0011298635508865118,0.00587534299120307,0.000557983759790659
2024-05-13 17:37:37.283392,0.35439076838845845,0.34998148107281857,171.24614770072284,0.010427085682749748,-0.007391948252916336,-1.004475712776184,0.002040040446445346,0.004951157607138157,0.00011260311293881387
2024-05-13 17:37:37.292412,0.3572636099863893,0.3588037109225214,171.25546407875075,0.009344538673758507,-0.004829697776585817,-1.0040266513824463,0.0029674931429326534,0.00628696708008647,0.0006907380884513259
2024-05-13 17:37:37.319747,0.35572583024735793,0.36380631756145326,171.25837373933717,4.7921319492161274e-05,-0.004940839484333992,-1.0019985437393188,-0.0020845062099397182,0.006248653866350651,-0.004455256275832653
2024-05-13 17:37:37.338886,0.33693880796585607,0.3678261240118438,171.25583290896594,-0.007529513910412788,-0.0024250440765172243,-0.9976939558982849,-0.013171475380659103,0.009200453758239746,-0.011252839118242264
2024-05-13 17:37:37.361597,0.30758030703561406,0.3889275398853486,171.24687170077488,-0.009895658120512962,-0.003750974079594016,-0.9949122071266174,-0.023180535063147545,0.022920485585927963,-0.014595851302146912
2024-05-13 17:37:37.379456,0.2652320136036243,0.4274535420639229,171.24157147397895,-0.009822838939726353,0.0006018364802002907,-0.9974132180213928,-0.03302798792719841,0.036560896784067154,-0.020525813102722168
2024-05-13 17:37:37.399476,0.22425167899634119,0.4773065858877435,171.22578007661787,0.0073447744362056255,-0.0010143039980903268,-1.0072600841522217,-0.034256115555763245,0.04042653366923332,-0.023105721920728683
2024-05-13 17:37:37.421667,0.174067851245451,0.5225053093594499,171.2177341137756,0.013232562690973282,0.004665801301598549,-0.9914578795433044,-0.03969796374440193,0.03755814954638481,-0.02545245923101902
2024-05-13 17:37:37.439665,0.11882041206056157,0.5682182180096115,171.1864655077553,0.00539968628436327,-0.0029786289669573307,-1.0024546384811401,-0.048255566507577896,0.04114435985684395,-0.03203292191028595
2024-05-13 17:37:37.462269,0.04836931529371426,0.6189552110419934,171.15786067551127,-0.0012812599306926131,0.0030837454833090305,-0.9999740719795227,-0.057909779250621796,0.04772371053695679,-0.040127865970134735
2024-05-13 17:37:37.481515,-0.03371256976829992,0.6758370264498595,171.12738437143466,-0.004443167708814144,0.002433020155876875,-0.9952411651611328,-0.06747254729270935,0.05328283831477165,-0.040501657873392105
2024-05-13 17:37:37.499127,-0.12418628604576028,0.7415403513359146,171.11085531364324,0.005931572522968054,0.013167059049010277,-1.0014619827270508,-0.07268491387367249,0.05832405388355255,-0.04362701252102852
2024-05-13 17:37:37.515774,-0.2098789866310774,0.8131743614948034,171.0809117643219,0.021020758897066116,0.008400755003094673,-1.003702998161316,-0.0717276781797409,0.05930985510349274,-0.044629283249378204
2024-05-13 17:37:37.541677,-0.287418522420662,0.8883078297471189,171.01301968397198,0.03331449255347252,-0.003121002810075879,-1.002822995185852,-0.07072985917329788,0.057705361396074295,-0.04526326432824135
2024-05-13 17:37:37.559590,-0.36798420553853256,0.9493234037067236,170.95733998185804,0.023493237793445587,0.0015596089651808143,-1.0105572938919067,-0.07155190408229828,0.05285418778657913,-0.04814537242054939
2024-05-13 17:37:37.574020,-0.4556846615747161,1.0092451869037744,170.92720518723993,0.019033215939998627,0.013787473551928997,-1.0015630722045898,-0.07157712429761887,0.05292561650276184,-0.048124343156814575
2024-05-13 17:37:37.586965,-0.53744869604638,1.0776034276645545,170.8965103171099,0.014979951083660126,0.014091909863054752,-1.0022860765457153,-0.06884894520044327,0.06070782244205475,-0.0464189238846302
2024-05-13 17:37:37.619084,-0.6180714485964172,1.1514557018389637,170.86301506942016,0.020607318729162216,0.012856141664087772,-1.0076144933700562,-0.06897306442260742,0.06296174973249435,-0.04499393701553345
2024-05-13 17:37:37.634966,-0.6944419281404454,1.223869794306262,170.81222578275194,0.03108852729201317,0.00494415545836091,-1.0013201236724854,-0.06865577399730682,0.060662783682346344,-0.04723969101905823
2024-05-13 17:37:37.661728,-0.7728947616076812,1.2955793100719912,170.7765858556628,0.03374725580215454,0.01544225588440895,-1.010410189628601,-0.06700284779071808,0.059270430356264114,-0.04724286496639252
2024-05-13 17:37:37.678803,-0.857009181566623,1.360385745742659,170.7519425331374,0.03214027360081673,0.021229244768619537,-0.9997656345367432,-0.06893327087163925,0.055213890969753265,-0.04662035033106804
2024-05-13 17:37:37.703978,-0.9394773658530329,1.4198093520171218,170.7289111352561,0.02503965049982071,0.023288020864129066,-1.0016285181045532,-0.06732329726219177,0.052853211760520935,-0.043875642120838165
2024-05-13 17:37:37.721857,-1.0190182271107107,1.4783681923096377,170.69551151021477,0.02430896833539009,0.01831047423183918,-1.0040369033813477,-0.06885873526334763,0.05351128801703453,-0.045342788100242615
2024-05-13 17:37:37.730781,-1.1007094240181787,1.5434203013470142,170.64996780882913,0.025299640372395515,0.01521358173340559,-1.003706932067871,-0.07106143236160278,0.05816394090652466,-0.04902397841215134
2024-05-13 17:37:37.763265,-1.1842181982968107,1.6157383442791093,170.60800312656855,0.03623496741056442,0.021303890272974968,-1.0072743892669678,-0.06989449262619019,0.059259433299303055,-0.05052676051855087
2024-05-13 17:37:37.776318,-1.2711740836721837,1.683509829101503,170.56024644389183,0.03346420079469681,0.023729845881462097,-0.9957204461097717,-0.07369434088468552,0.059071414172649384,-0.050981272011995316
2024-05-13 17:37:37.784258,-1.362083581359936,1.753441467970619,170.52459285642436,0.02883865125477314,0.02975783310830593,-1.0062894821166992,-0.07434918731451035,0.06320834904909134,-0.05210133641958237
2024-05-13 17:37:37.823556,-1.447088487231918,1.8268102928178382,170.47547013591364,0.02579302154481411,0.021216491237282753,-1.0006601810455322,-0.07510077953338623,0.06683647632598877,-0.05395975708961487
2024-05-13 17:37:37.836946,-1.5386835651576105,1.9064016334423506,170.43951602012268,0.03292545676231384,0.029143184423446655,-1.0077816247940063,-0.07635153084993362,0.06922543793916702,-0.05578963831067085
2024-05-13 17:37:37.859657,-1.6305068140902637,1.9811813192400005,170.40296084768477,0.044869810342788696,0.03128059208393097,-0.9961323142051697,-0.07649648189544678,0.06284704804420471,-0.054155729711055756
2024-05-13 17:37:37.881098,-1.7271166382489205,2.0525783538512017,170.36736190173067,0.04771687090396881,0.03540442883968353,-0.9995058178901672,-0.07870499044656754,0.05971363186836243,-0.05620456114411354
2024-05-13 17:37:37.901011,-1.8143185171561196,2.1148476944103267,170.29630061360587,0.046844109892845154,0.019920511171221733,-1.0024592876434326,-0.07867100089788437,0.05399203300476074,-0.0618048794567585
2024-05-13 17:37:37.919722,-1.8975923969603266,2.1707574885219354,170.23049857114196,0.04347829148173332,0.022125259041786194,-1.0089890956878662,-0.07535460591316223,0.04879147931933403,-0.0644279420375824
2024-05-13 17:37:37.932884,-1.9767572776485363,2.216957741841548,170.15143230130988,0.053572073578834534,0.01716465875506401,-1.001844882965088,-0.07276277244091034,0.03813067451119423,-0.06268944591283798
2024-05-13 17:37:37.961234,-2.058835874347991,2.259800743740688,170.09054799504838,0.05659601464867592,0.03220067918300629,-1.0031239986419678,-0.06973028928041458,0.03461073338985443,-0.06573467701673508
2024-05-13 17:37:37.977654,-2.1315135694285696,2.29825065334304,170.02425417896424,0.05716336891055107,0.029235854744911194,-1.0026646852493286,-0.06374222040176392,0.030925819650292397,-0.06738048046827316
2024-05-13 17:37:38.003670,-2.205142581794484,2.3213072375468875,169.96189455184202,0.04934951290488243,0.034814439713954926,-1.005297303199768,-0.06291525065898895,0.02140960656106472,-0.07148274034261703
2024-05-13 17:37:38.021611,-2.274699093867778,2.333712568626923,169.902594849468,0.05744250863790512,0.03615467622876167,-0.9906913042068481,-0.05907578021287918,0.010421964339911938,-0.06943404674530029
2024-05-13 17:37:38.026771,-2.3447828111676325,2.3458671036983723,169.86517907319467,0.05374931916594505,0.055545344948768616,-0.9930846095085144,-0.05258743092417717,0.010845758952200413,-0.07568759471178055
2024-05-13 17:37:38.069682,-2.4002100097256975,2.3765820375090962,169.8197719755924,0.06435695290565491,0.06111856922507286,-0.9904399514198303,-0.040145114064216614,0.020871900022029877,-0.08859895169734955
2024-05-13 17:37:38.073941,-2.437617248262565,2.4069556753047316,169.74591030990788,0.06045689061284065,0.054069023579359055,-0.9949468374252319,-0.02719377726316452,0.02337411604821682,-0.09979408234357834
2024-05-13 17:37:38.099746,-2.4605762888273284,2.434917189106294,169.64080735895973,0.06334753334522247,0.04422173649072647,-0.9932189583778381,-0.017315765842795372,0.021568892523646355,-0.10910999774932861
2024-05-13 17:37:38.119127,-2.473810847561286,2.45936926633494,169.52940697359682,0.049187593162059784,0.042609088122844696,-0.9974479675292969,-0.009079867973923683,0.02566298469901085,-0.11507078260183334
2024-05-13 17:37:38.141377,-2.4860832033959177,2.4940926674148156,169.414755418189,0.055323705077171326,0.04765940457582474,-0.994142472743988,-0.004207262769341469,0.0294629093259573,-0.1223495751619339
2024-05-13 17:37:38.159324,-2.4910500315829864,2.519078353172368,169.2986831834338,0.0587235651910305,0.049619410187006,-0.9926732778549194,0.002907080575823784,0.023128438740968704,-0.12697002291679382
2024-05-13 17:37:38.182989,-2.49366855535604,2.5375076976569435,169.1770101935592,0.062285155057907104,0.050260499119758606,-0.9957271218299866,0.005613588262349367,0.017886251211166382,-0.13162292540073395
2024-05-13 17:37:38.201564,-2.4871858520600516,2.55569819896398,169.0397780327553,0.05719589814543724,0.04505625367164612,-1.0003559589385986,0.01005144789814949,0.017818763852119446,-0.13733041286468506
2024-05-13 17:37:38.214988,-2.48021927255005,2.5696970985547445,168.89786036218078,0.046172842383384705,0.04273364692926407,-0.9995166659355164,0.013821286149322987,0.017636889591813087,-0.145291268825531
2024-05-13 17:37:38.243001,-2.46789248864547,2.5894406141243125,168.74123046413405,0.05351468548178673,0.04023289307951927,-0.9974444508552551,0.015431729145348072,0.020441219210624695,-0.15072526037693024
2024-05-13 17:37:38.261616,-2.456299736633254,2.609416996455896,168.59567913292108,0.04957563430070877,0.04577814042568207,-0.9990185499191284,0.01751035265624523,0.022488223388791084,-0.15397721529006958
2024-05-13 17:37:38.274829,-2.4451795483342385,2.6308872692250076,168.44544229193747,0.05440570041537285,0.04653189703822136,-0.9973579049110413,0.01915232092142105,0.020984238013625145,-0.15872319042682648
2024-05-13 17:37:38.302830,-2.426758955029537,2.6464383293046576,168.2817636386673,0.0621025413274765,0.044528529047966,-0.9985173940658569,0.023294175043702126,0.015400606207549572,-0.16213247179985046
2024-05-13 17:37:38.321612,-2.4065783073530884,2.6546874902747404,168.1224972876009,0.06003743037581444,0.04282788187265396,-1.004967451095581,0.024523235857486725,0.010947768576443195,-0.1606975942850113
2024-05-13 17:37:38.337321,-2.3848472067350466,2.660902322089217,167.96623621976937,0.05992048606276512,0.04590250924229622,-1.0018584728240967,0.028999218717217445,0.008143734186887741,-0.16488315165042877
2024-05-13 17:37:38.363772,-2.3463548218937933,2.6729279373400825,167.8029400570927,0.06294189393520355,0.04645500332117081,-0.9935621023178101,0.04118680581450462,0.012795597314834595,-0.17065545916557312
2024-05-13 17:37:38.381747,-2.3001547820175925,2.697602422603577,167.64535393256216,0.06595008075237274,0.055236004292964935,-1.000234603881836,0.052696939557790756,0.020856065675616264,-0.17761237919330597
2024-05-13 17:37:38.399382,-2.2459608594915377,2.7237772016069464,167.48353309074622,0.06589874625205994,0.05716019496321678,-0.992827296257019,0.0614873431622982,0.021919872611761093,-0.1823432296514511
2024-05-13 17:37:38.423626,-2.1734705677263118,2.741861194651613,167.30465043638358,0.06369515508413315,0.05238298699259758,-0.9939066767692566,0.07265176624059677,0.01911606453359127,-0.183772474527359
2024-05-13 17:37:38.441662,-2.0928429593386615,2.754608248633561,167.1118888376275,0.05920063704252243,0.04445293918251991,-1.0017809867858887,0.08135592937469482,0.01705554872751236,-0.18784107267856598
2024-05-13 17:37:38.450431,-2.009849117290425,2.774026049557084,166.9140045969939,0.061868976801633835,0.04230450838804245,-0.9991647601127625,0.08349713683128357,0.018353037536144257,-0.1926182210445404
2024-05-13 17:37:38.483236,-1.9118243767565175,2.794277987332995,166.69642209079396,0.05967395007610321,0.03135067969560623,-1.0004587173461914,0.09097921848297119,0.0216001458466053,-0.19586622714996338
2024-05-13 17:37:38.501073,-1.8141972812983518,2.8151250053403434,166.48191316972054,0.05409438535571098,0.03345653414726257,-1.0020549297332764,0.09394685178995132,0.022403165698051453,-0.20218290388584137
2024-05-13 17:37:38.511815,-1.7290685782476631,2.827203768000688,166.2668578335135,0.047224100679159164,0.03016551397740841,-0.9956731200218201,0.08626650273799896,0.017312699928879738,-0.2035866677761078
2024-05-13 17:37:38.543743,-1.645726930160285,2.83383310692042,166.03363419411426,0.04131487011909485,0.025373561307787895,-0.9946966171264648,0.0816139206290245,0.015246771275997162,-0.20521658658981323
2024-05-13 17:37:38.556018,-1.5723287568439759,2.838843050676624,165.80356610211155,0.04039032757282257,0.026393143460154533,-1.0035417079925537,0.0746939554810524,0.014260639436542988,-0.20880277454853058
2024-05-13 17:37:38.564692,-1.509032219866704,2.847945771849547,165.56714593418073,0.04659022018313408,0.022514745593070984,-1.0013450384140015,0.06729599088430405,0.014150489121675491,-0.21031944453716278
2024-05-13 17:37:38.603742,-1.4450525572507253,2.8624750783180453,165.30257172649112,0.05155622586607933,0.013032852672040462,-1.0021535158157349,0.06139533966779709,0.016535531729459763,-0.21774421632289886
2024-05-13 17:37:38.618542,-1.3947373283995916,2.8740328256107643,165.06315993570382,0.05089390277862549,0.021244999021291733,-0.999239981174469,0.053979888558387756,0.014906237833201885,-0.22123852372169495
2024-05-13 17:37:38.639738,-1.35212484538494,2.8790594179530706,164.81955440876615,0.04812175780534744,0.022594265639781952,-0.9943279027938843,0.049494419246912,0.010972128249704838,-0.2216929793357849
2024-05-13 17:37:38.663440,-1.31650903740132,2.881341128022678,164.59385763783226,0.04613194242119789,0.030761679634451866,-1.0014210939407349,0.04673747345805168,0.008640685118734837,-0.22440753877162933
2024-05-13 17:37:38.680762,-1.283071205989288,2.8817592636659297,164.35286124315752,0.04687230661511421,0.024466142058372498,-0.9980038404464722,0.041238732635974884,0.007621637545526028,-0.2274472564458847
2024-05-13 17:37:38.699812,-1.2452041036222083,2.8902415048414394,164.07114326065118,0.05419328436255455,0.008148986846208572,-1.0015690326690674,0.039600543677806854,0.010666094720363617,-0.23043622076511383
2024-05-13 17:37:38.723892,-1.2142889598914381,2.901803094115567,163.8010229393555,0.05840366333723068,0.018113907426595688,-0.9982985854148865,0.03798393905162811,0.012134620919823647,-0.2357349395751953
2024-05-13 17:37:38.743211,-1.190789373886892,2.9118308790342033,163.5491802042788,0.054924145340919495,0.029204150661826134,-0.9953445792198181,0.0374612994492054,0.012477708049118519,-0.2367401123046875
2024-05-13 17:37:38.759744,-1.1677577625621973,2.9185182745618805,163.31353867791336,0.053937602788209915,0.04007546603679657,-0.9992128014564514,0.03904666006565094,0.009809006936848164,-0.23535001277923584
2024-05-13 17:37:38.780473,-1.1395823784622485,2.9208714881743614,163.0577207727397,0.050649501383304596,0.029161883518099785,-0.9996500611305237,0.039520177990198135,0.008767768740653992,-0.23731184005737305
2024-05-13 17:37:38.786220,-1.1017000148912421,2.9321784394584944,162.74694716550414,0.05441620945930481,0.007489129435271025,-1.000054121017456,0.04004700109362602,0.01305195689201355,-0.2421344816684723
2024-05-13 17:37:38.819163,-1.0663594421868325,2.9493666105048315,162.45454676713587,0.05669686198234558,0.012853429652750492,-0.9999201893806458,0.04058542475104332,0.01633327268064022,-0.24524006247520447
2024-05-13 17:37:38.837190,-1.0421837741761608,2.9622553909120573,162.18665308750963,0.0595952607691288,0.023503851145505905,-0.9941324591636658,0.036937564611434937,0.012847592122852802,-0.24348539113998413
2024-05-13 17:37:38.846203,-1.0199564176262355,2.9678025717351653,161.9366408431305,0.057898566126823425,0.03499918058514595,-0.9992507100105286,0.038040872663259506,0.008567131124436855,-0.24439120292663574
2024-05-13 17:37:38.878737,-0.9894415870138513,2.9715920460640532,161.67261305057448,0.051806043833494186,0.02367868460714817,-0.9990037083625793,0.04058724269270897,0.008022145368158817,-0.24442058801651
2024-05-13 17:37:38.899548,-0.9536897088553601,2.987096148593159,161.36989906655953,0.057466402649879456,0.009068810380995274,-0.9985165596008301,0.040598392486572266,0.014281442388892174,-0.24963778257369995
2024-05-13 17:37:38.921636,-0.9199073797770655,3.0103890146536063,161.09660953748897,0.058540113270282745,0.023409388959407806,-0.9987499117851257,0.04495200514793396,0.02109823003411293,-0.25208383798599243
2024-05-13 17:37:38.939859,-0.8844454644931824,3.0424693459680987,160.86128219982535,0.06747554242610931,0.04443051293492317,-0.9901984333992004,0.05425972118973732,0.025594238191843033,-0.2465711086988449
2024-05-13 17:37:38.980762,-0.8364664271424576,3.0756585158056597,160.63800331585762,0.06678137928247452,0.05209219455718994,-1.0004938840866089,0.06626199930906296,0.027277909219264984,-0.24521061778068542
2024-05-13 17:37:38.998752,-0.6783918373645617,3.152122910450776,160.0585437270521,0.06124038249254227,0.0057825082913041115,-1.0001722574234009,0.08421650528907776,0.0379551537334919,-0.2486816942691803
2024-05-13 17:37:39.041593,-0.5132056332785073,3.2506767772019476,159.52013357515833,0.06602876633405685,0.031196750700473785,-0.9940652251243591,0.09106740355491638,0.04432753100991249,-0.24014610052108765
2024-05-13 17:37:39.083794,-0.3161828502539658,3.3527650534051894,158.98841700865117,0.0709342435002327,0.007538678124547005,-0.9954615235328674,0.10381264239549637,0.04439092054963112,-0.2401672750711441
2024-05-13 17:37:39.101719,-0.20448416438318548,3.412228893762732,158.68053940162366,0.06324485689401627,-0.005836195312440395,-0.9985014796257019,0.1072658896446228,0.05039890110492706,-0.24269579350948334
2024-05-13 17:37:39.118393,-0.10001771502852305,3.4617281284514605,158.38469658791374,0.05432453006505966,-0.00532850855961442,-0.9903126358985901,0.10190515965223312,0.04670924320816994,-0.238902285695076
2024-05-13 17:37:39.142736,-0.007082038221680422,3.4930594868347784,158.10433098286305,0.04673219472169876,-0.005895701237022877,-0.9946696758270264,0.09623357653617859,0.034577377140522,-0.23396101593971252
2024-05-13 17:37:39.152472,0.09936080957890517,3.5259342545271077,157.79889858355844,0.048757027834653854,-0.023165328428149223,-0.9943854212760925,0.09784430265426636,0.03480853512883186,-0.22749291360378265
2024-05-13 17:37:39.163958,0.2057534990115368,3.569505098459677,157.50010512812705,0.04161417484283447,-0.03126911446452141,-0.9943001866340637,0.09566568583250046,0.04225233942270279,-0.2232545167207718
2024-05-13 17:37:39.203479,0.3042408781400068,3.6154120805318017,157.20730857878695,0.055067580193281174,-0.027545390650629997,-0.9904907941818237,0.09250392019748688,0.04107274115085602,-0.21822893619537354
2024-05-13 17:37:39.212777,0.38883506552728897,3.6550459607380934,156.96946773150876,0.055687520653009415,-0.0038972580805420876,-0.9883561134338379,0.09032009541988373,0.03478803485631943,-0.20828630030155182
2024-05-13 17:37:39.224872,0.4810914178224297,3.6930149823341942,156.7094151090497,0.06757935136556625,-0.014463694766163826,-0.9901323914527893,0.0907147005200386,0.032787445932626724,-0.2035909742116928
2024-05-13 17:37:39.262734,0.5716036973212635,3.745433269119457,156.41656391819623,0.0685129463672638,-0.034299466758966446,-0.990135133266449,0.08300730586051941,0.03970121219754219,-0.1951407492160797
2024-05-13 17:37:39.274549,0.6566716757213624,3.7995057423443326,156.13854789822003,0.07421554625034332,-0.03844065964221954,-0.9864100217819214,0.07639375329017639,0.0416291281580925,-0.18143533170223236
2024-05-13 17:37:39.299542,0.7197391345571743,3.8461298942793087,155.89539316376758,0.06802798807621002,-0.02495717816054821,-0.9882205724716187,0.06511911749839783,0.0380752794444561,-0.16960808634757996
2024-05-13 17:37:39.323742,0.7729752297738405,3.897185558325154,155.70282281030825,0.07770509272813797,-0.003875550115481019,-0.9897563457489014,0.06354403495788574,0.0391969196498394,-0.1605590134859085
2024-05-13 17:37:39.337109,0.8374088331653606,3.9543832699821335,155.49566317278175,0.07451751828193665,-0.0167221762239933,-0.9915255904197693,0.06494434922933578,0.04443323239684105,-0.15481913089752197
2024-05-13 17:37:39.359858,0.9039285791006437,4.010670432045385,155.2715236849786,0.0782390907406807,-0.02830367349088192,-0.987671434879303,0.0635291114449501,0.04299042746424675,-0.15022249519824982
2024-05-13 17:37:39.383845,0.9646054183660983,4.059306501577754,155.07622125585127,0.07714969664812088,-0.024637553840875626,-0.991381824016571,0.06033866107463837,0.03890892490744591,-0.1366366595029831
2024-05-13 17:37:39.399614,1.0182210159685232,4.103685655709912,154.9165724141914,0.07374776899814606,-0.010409996844828129,-0.9905251264572144,0.05930864065885544,0.03786381706595421,-0.1317249834537506
2024-05-13 17:37:39.419711,1.075750098521954,4.155925930689931,154.75025730790156,0.07452445477247238,-0.011977504938840866,-0.9925567507743835,0.06114135682582855,0.041404031217098236,-0.12841448187828064
2024-05-13 17:37:39.443581,1.1351054029047167,4.210235752988464,154.57943427675957,0.08060218393802643,-0.01990695111453533,-0.9913137555122375,0.060363296419382095,0.04153067246079445,-0.11908524483442307
2024-05-13 17:37:39.451935,1.1908541539623012,4.255146381215414,154.4141573592236,0.07760182023048401,-0.027357904240489006,-0.9910182356834412,0.05496731400489807,0.03533809259533882,-0.1110261008143425
2024-05-13 17:37:39.479762,1.2441687963544226,4.298667919719912,154.26448059375193,0.08094925433397293,-0.014258108101785183,-0.9945557713508606,0.057271383702754974,0.035456616431474686,-0.1110461950302124
2024-05-13 17:37:39.503122,1.294199932024766,4.348993607298212,154.13487092406177,0.07862602174282074,-0.009367379359900951,-0.9939836859703064,0.05662175267934799,0.038764942437410355,-0.10380436480045319
2024-05-13 17:37:39.512894,1.3492112360954007,4.393945216660182,153.9916418571666,0.08100465685129166,-0.01865985430777073,-0.9933185577392578,0.056200310587882996,0.03542383015155792,-0.09734803438186646
2024-05-13 17:37:39.524509,1.4106978796643248,4.429021653142782,153.84329014839392,0.08203235268592834,-0.023072075098752975,-0.992740273475647,0.05902278050780296,0.029422003775835037,-0.09160226583480835
2024-05-13 17:37:39.563589,1.4729706353180352,4.4637309669574945,153.7084075726645,0.08115031570196152,-0.02183663472533226,-0.9966158866882324,0.06111877039074898,0.027555381879210472,-0.08701077848672867
2024-05-13 17:37:39.572578,1.533395397914434,4.496527827804603,153.5902179792666,0.07981576025485992,-0.014785101637244225,-0.9939382672309875,0.06340370327234268,0.027574962005019188,-0.08333755284547806
2024-05-13 17:37:39.599739,1.6004439499018641,4.526494855901211,153.47959623546907,0.07901903241872787,-0.01483849436044693,-0.9927138686180115,0.06737149506807327,0.02411424182355404,-0.07703239470720291
2024-05-13 17:37:39.619160,1.6687557667206292,4.551936029899039,153.36116075526107,0.08677814155817032,-0.022501852363348007,-0.998732328414917,0.0659024640917778,0.018821479752659798,-0.06983784586191177
2024-05-13 17:37:39.647714,1.737132150171392,4.576490986852058,153.25556603069268,0.085530586540699,-0.021525098010897636,-0.9936797618865967,0.06802359968423843,0.0185560192912817,-0.06608722358942032
2024-05-13 17:37:39.658893,1.8061423538327912,4.601228651365375,153.16214270322524,0.08333862572908401,-0.01836046390235424,-0.9961990714073181,0.0696236714720726,0.01811475120484829,-0.06459544599056244
2024-05-13 17:37:39.680831,1.8719631793169116,4.615103753777433,153.07355514969018,0.08524089306592941,-0.019368087872862816,-0.9959373474121094,0.06642542779445648,0.010103810578584671,-0.05808434635400772
2024-05-13 17:37:39.701653,1.9413899177959755,4.622257523159375,152.9803230675195,0.0853884220123291,-0.02455742470920086,-0.9927096366882324,0.067955881357193,0.004619654268026352,-0.053789183497428894
2024-05-13 17:37:39.719718,2.0127568568861465,4.624110638858564,152.8708078143675,0.08027107268571854,-0.03531920909881592,-0.9924877882003784,0.06470697373151779,0.0003709055599756539,-0.05577198415994644
2024-05-13 17:37:39.743175,2.062766434771922,4.617940416717103,152.76081444797362,0.08365906029939651,-0.03615691140294075,-0.9965406060218811,0.049259454011917114,-0.008898802101612091,-0.05348783731460571
2024-05-13 17:37:39.761583,2.0955946718005305,4.592556018666751,152.66296515792402,0.08754566311836243,-0.03167450428009033,-0.9921349883079529,0.03707917407155037,-0.024683210998773575,-0.05021064355969429
2024-05-13 17:37:39.779355,2.118045930489185,4.553483067746047,152.57566167995293,0.08355434238910675,-0.023977763950824738,-0.9976873993873596,0.030031193047761917,-0.035232022404670715,-0.05175698921084404
2024-05-13 17:37:39.795121,2.1282848109418575,4.508901996146551,152.4789735220622,0.08601181209087372,-0.02376098930835724,-0.9971768260002136,0.0189153254032135,-0.04241199418902397,-0.05295100063085556
2024-05-13 17:37:39.821636,2.1349807442059974,4.456085850842134,152.35803819261798,0.0839892104268074,-0.03738873079419136,-0.9945829510688782,0.010877289809286594,-0.04878264665603638,-0.050980884581804276
2024-05-13 17:37:39.838838,2.135762587422552,4.390950178709131,152.22472656039767,0.08397520333528519,-0.040999338030815125,-0.9916241765022278,0.004681568592786789,-0.05921297147870064,-0.054687418043613434
2024-05-13 17:37:39.869643,2.125092551278523,4.319716855194598,152.11646806205295,0.08281522989273071,-0.029896380379796028,-0.9949274659156799,-0.0007977272616699338,-0.06473144888877869,-0.05425171181559563
2024-05-13 17:37:39.881665,2.1071618106033583,4.251597671054769,152.0223890364252,0.08250369131565094,-0.024258997291326523,-0.9969426393508911,-0.006167889107018709,-0.06408089399337769,-0.05481898784637451
2024-05-13 17:37:39.899638,2.0945584040373926,4.181631347631274,151.9121224624645,0.07933901995420456,-0.031180452555418015,-0.9957435131072998,-0.005818442907184362,-0.06490316987037659,-0.05693282559514046
2024-05-13 17:37:39.923706,2.084954731177531,4.110214035895974,151.80344049239127,0.0740683451294899,-0.03811793029308319,-0.998534083366394,-0.006148147396743298,-0.06447665393352509,-0.052213359624147415
2024-05-13 17:37:39.941585,2.073683638386541,4.0402050237901665,151.70168433413642,0.06861715763807297,-0.03829573839902878,-0.9959689974784851,-0.007080242037773132,-0.06107664480805397,-0.04936284199357033
2024-05-13 17:37:39.951270,2.0583210488393013,3.9807063921565393,151.60733210094187,0.06958090513944626,-0.028824618086218834,-0.9995810985565186,-0.006797631271183491,-0.05483706295490265,-0.048238929361104965
2024-05-13 17:37:39.983258,2.0441368803673003,3.926595499117583,151.5166271887641,0.07628556340932846,-0.026183554902672768,-0.9952985644340515,-0.005410424899309874,-0.051935337483882904,-0.04236282408237457
2024-05-13 17:37:40.001102,2.0315456400757936,3.870935860684326,151.41999367238677,0.07473721355199814,-0.03535843268036842,-0.9978531002998352,-0.007504025474190712,-0.05329325422644615,-0.037629757076501846
2024-05-13 17:37:40.011742,2.0221078127467167,3.8147831679703583,151.31755449521492,0.07066234946250916,-0.04083956032991409,-0.9974408745765686,-0.008444172330200672,-0.05147332325577736,-0.039086051285266876
2024-05-13 17:37:40.043735,2.0051019223738544,3.7616617985874075,151.23094769653915,0.0689101591706276,-0.03522264212369919,-0.9994302988052368,-0.011455047875642776,-0.04954490438103676,-0.03744267299771309
2024-05-13 17:37:40.056697,1.9837851154176562,3.7062373747936928,151.1646812012117,0.06579872220754623,-0.02985864318907261,-0.9995304346084595,-0.013868678361177444,-0.04841238260269165,-0.03291302174329758
2024-05-13 17:37:40.064053,1.964838597546864,3.654603279102512,151.10121508344392,0.06523361802101135,-0.029804695397615433,-0.9990512728691101,-0.013050380162894726,-0.047281742095947266,-0.029349833726882935
2024-05-13 17:37:40.102795,1.9457358390988078,3.610262117897612,151.01463560552483,0.07299425452947617,-0.0359664261341095,-0.9999679923057556,-0.01644500344991684,-0.04486843943595886,-0.031557802110910416
2024-05-13 17:37:40.118138,1.9139731115807213,3.554304939348637,150.90598095620828,0.07798485457897186,-0.03768923878669739,-1.0020911693572998,-0.025198878720402718,-0.05563559755682945,-0.04015617445111275
2024-05-13 17:37:40.139706,1.8676409502327629,3.4732901446124114,150.7896491742646,0.08223560452461243,-0.031130613759160042,-0.9992372393608093,-0.03470280393958092,-0.07586917281150818,-0.04973488673567772
2024-05-13 17:37:40.163591,1.8091237314055018,3.375727935951361,150.6751752037752,0.07618121802806854,-0.028691470623016357,-0.9993899464607239,-0.04558616504073143,-0.08835990726947784,-0.05732276290655136
2024-05-13 17:37:40.180696,1.738046861911645,3.270365437814744,150.55893904447993,0.05994720757007599,-0.03235016018152237,-0.9964599609375,-0.05590756982564926,-0.09244648367166519,-0.06573477387428284
2024-05-13 17:37:40.199682,1.6580794339959588,3.158851927443708,150.42129707232584,0.0563787966966629,-0.037965089082717896,-0.9966964721679688,-0.06675597280263901,-0.09972251206636429,-0.07440947741270065
2024-05-13 17:37:40.223920,1.5673755890352472,3.0350671284550974,150.29075849690855,0.058617811650037766,-0.031681764870882034,-0.9994720220565796,-0.0755157396197319,-0.10976850241422653,-0.07939717173576355
2024-05-13 17:37:40.232285,1.4625977124029015,2.9038045529857923,150.1671320729313,0.05757514014840126,-0.025968017056584358,-0.9995119571685791,-0.08404073119163513,-0.11720865964889526,-0.08192771673202515
2024-05-13 17:37:40.244453,1.3521651861897255,2.7770411511888216,150.02893002526528,0.059111833572387695,-0.022921133786439896,-0.9977593421936035,-0.08987267315387726,-0.11706952005624771,-0.08897929638624191
2024-05-13 17:37:40.283323,1.2406300113124153,2.645019144061176,149.89093288327433,0.05118751898407936,-0.022796712815761566,-0.9979274272918701,-0.09190536290407181,-0.1189480572938919,-0.09302065521478653
2024-05-13 17:37:40.292311,1.1270443923019264,2.5018368212731406,149.74613287287008,0.04250408709049225,-0.024487661197781563,-0.9974325299263,-0.09560858458280563,-0.12457501888275146,-0.09368684887886047
2024-05-13 17:37:40.319645,1.017368522982741,2.371940283637838,149.64107090305694,0.041728828102350235,-0.01303896028548479,-0.9983878135681152,-0.08946620672941208,-0.1145515963435173,-0.0836152657866478
2024-05-13 17:37:40.337958,0.9206939187486748,2.2594889029163943,149.55838463296476,0.036002349108457565,-0.010397715494036674,-1.001519799232483,-0.0805974081158638,-0.09866359829902649,-0.0755336657166481
2024-05-13 17:37:40.346422,0.8351953716266005,2.1623580633901125,149.4755617590892,0.038778845220804214,-0.00936660822480917,-0.9994053840637207,-0.07064680010080338,-0.08885952830314636,-0.06852662563323975
2024-05-13 17:37:40.379669,0.7581007853088452,2.069167602684693,149.39400930039923,0.04148998484015465,-0.010227463208138943,-0.9995250105857849,-0.06519681215286255,-0.0840764045715332,-0.058873534202575684
2024-05-13 17:37:40.399539,0.6898238131270177,1.9792558462242915,149.3237266538398,0.03044203482568264,-0.010699084028601646,-1.0000287294387817,-0.05901769548654556,-0.07742553949356079,-0.05201595276594162
2024-05-13 17:37:40.421720,0.6252299137334137,1.9047875743641118,149.2581568378077,0.031476184725761414,-0.0049997917376458645,-0.9998298287391663,-0.05315864086151123,-0.06605390459299088,-0.04705479368567467
2024-05-13 17:37:40.439158,0.5684184279296575,1.8417709684211048,149.1999363053225,0.0367855578660965,0.0012356851948425174,-0.9997249245643616,-0.04595290496945381,-0.059121061116456985,-0.041571155190467834
2024-05-13 17:37:40.462192,0.5203720491825846,1.7787484927842798,149.14728920720003,0.03152310475707054,-0.004130417946726084,-1.00080144405365,-0.0395624078810215,-0.055064719170331955,-0.03654167428612709
2024-05-13 17:37:40.481685,0.4780146844056034,1.7265032018840887,149.08958776909176,0.03149103373289108,-0.006149246823042631,-1.000511884689331,-0.03540799394249916,-0.04695853963494301,-0.033302295953035355
2024-05-13 17:37:40.499100,0.44018648210028116,1.6841824960130436,149.0310257271481,0.034307729452848434,-0.006566482130438089,-0.9998339414596558,-0.03237568214535713,-0.040856994688510895,-0.03009282425045967
2024-05-13 17:37:40.515366,0.4006180756604866,1.6330857441104722,148.96906225099772,0.03939653933048248,-0.0030854465439915657,-1.0057530403137207,-0.03199038654565811,-0.049421943724155426,-0.03200729563832283
2024-05-13 17:37:40.547260,0.36302434094276614,1.5631499430948308,148.89805560438626,0.04533838480710983,-0.0012123208725824952,-0.9985848665237427,-0.030125565826892853,-0.06467344611883163,-0.03857610374689102
2024-05-13 17:37:40.559674,0.3269886364077491,1.48153622614576,148.81418088137852,0.04444984346628189,-0.004485172685235739,-1.001468300819397,-0.030882149934768677,-0.0745416060090065,-0.045722052454948425
2024-05-13 17:37:40.575901,0.2881014879768104,1.3921605328134987,148.73333876236225,0.02983413264155388,-0.00935134757310152,-0.9993795156478882,-0.0322687141597271,-0.07943974435329437,-0.05268552899360657
2024-05-13 17:37:40.601740,0.2460293102781037,1.2920250503826458,148.65667671911802,0.0245665330439806,-0.005181930493563414,-0.9996771812438965,-0.03537539765238762,-0.08650527894496918,-0.056022994220256805
2024-05-13 17:37:40.619089,0.20180536952679176,1.1803631968405732,148.58483678942784,0.025249721482396126,0.0007427093805745244,-1.0025739669799805,-0.03538840636610985,-0.09620163589715958,-0.0548861101269722
2024-05-13 17:37:40.643160,0.1602404000750246,1.069460988400253,148.502847198631,0.030209841206669807,0.0010489096166566014,-1.000089168548584,-0.03356124460697174,-0.09996964782476425,-0.05278102681040764
2024-05-13 17:37:40.661335,0.12319698917337947,0.9549873380759567,148.41054402218745,0.03852948173880577,-0.00024956095148809254,-1.0008727312088013,-0.030409716069698334,-0.10742950439453125,-0.05442701280117035
2024-05-13 17:37:40.671416,0.092620486755267,0.8208005345073871,148.32375963859326,0.02944350801408291,-0.0025429108645766973,-1.000048279762268,-0.02745319902896881,-0.12030185759067535,-0.05324676260352135
2024-05-13 17:37:40.702870,0.059995447854466415,0.6724534681289116,148.2698557856635,0.018504302948713303,0.005266671068966389,-0.9988180994987488,-0.024229366332292557,-0.12931963801383972,-0.04670736938714981
2024-05-13 17:37:40.721818,0.04415625917952668,0.5251422426267509,148.23857351926486,0.005874323192983866,0.004938461817800999,-1.0006585121154785,-0.0138833774253726,-0.12447848170995712,-0.0372331328690052
2024-05-13 17:37:40.730573,0.04218725037796556,0.39339512393277165,148.22183955579834,0.001064050360582769,0.005708789452910423,-1.001573085784912,-0.0020848698914051056,-0.11472788453102112,-0.026754217222332954
2024-05-13 17:37:40.769586,0.04769656167078783,0.2705277580879114,148.21208604566354,0.005685202311724424,0.007416260428726673,-0.9984712600708008,0.006064988672733307,-0.10951360315084457,-0.01814785972237587
2024-05-13 17:37:40.775445,0.06224382740133693,0.1516093354808028,148.2120314041502,0.0070797535590827465,0.007213805336505175,-1.0004945993423462,0.014581157825887203,-0.10521118342876434,-0.00973106361925602
2024-05-13 17:37:40.784287,0.08627960993615559,0.040103325644650946,148.2102282342093,0.00451226532459259,0.005689434241503477,-1.001606822013855,0.02208591252565384,-0.0986688882112503,-0.0014966016169637442
2024-05-13 17:37:40.823735,0.11711131730332455,-0.06603781739240051,148.22162098974488,0.0021766163408756256,0.006375466473400593,-1.0006550550460815,0.02867799624800682,-0.09384357184171677,0.004162160214036703
2024-05-13 17:37:40.837077,0.15523759333289439,-0.1692632800718098,148.23203019803998,-0.0017543165013194084,0.0029148792382329702,-1.0005160570144653,0.03477274999022484,-0.08994492888450623,0.010219980962574482
2024-05-13 17:37:40.859661,0.19941070787182794,-0.2683210200166155,148.24597744432515,-0.0007850112160667777,0.0018286517588421702,-1.0030087232589722,0.03902607783675194,-0.08890426903963089,0.016034824773669243
2024-05-13 17:37:40.883767,0.24983826131829653,-0.36415927292289896,148.27019729512202,0.0012460341677069664,0.0011045008432120085,-1.0014549493789673,0.04422522708773613,-0.08595617860555649,0.02190607599914074
2024-05-13 17:37:40.899654,0.30252156477944114,-0.45632563213963945,148.30164348606075,-0.00277261552400887,-0.0007957884226925671,-1.0006824731826782,0.04576897621154785,-0.08219636231660843,0.026245202869176865
2024-05-13 17:37:40.919597,0.34789050937186905,-0.5441926540781215,148.3410400171934,-0.011271903291344643,-0.001202839077450335,-0.9998732805252075,0.04178829491138458,-0.07610488682985306,0.027021309360861778
2024-05-13 17:37:40.943595,0.3915112723823175,-0.6229452688168973,148.37310092515744,-0.013800513930618763,-0.005843034479767084,-1.000212550163269,0.039604172110557556,-0.06866524368524551,0.028214190155267715
2024-05-13 17:37:40.954794,0.4305166417828356,-0.6946025976684994,148.39796281373629,-0.012439869344234467,-0.006588293239474297,-0.9999518394470215,0.03538806363940239,-0.06269701570272446,0.02623508684337139
2024-05-13 17:37:40.979404,0.4621185930511623,-0.7571294577036753,148.42393119296068,-0.010926773771643639,-0.0050486112013459206,-1.001418948173523,0.029664654284715652,-0.056354038417339325,0.02503260225057602
2024-05-13 17:37:41.003096,0.49150388112955545,-0.8106581304767413,148.44391632647213,-0.008649328723549843,-0.004195552784949541,-1.0003093481063843,0.028266560286283493,-0.050258979201316833,0.023786764591932297
2024-05-13 17:37:41.012917,0.5193468271159951,-0.8590863061262473,148.46324576182326,-0.011729455552995205,-0.006586514413356781,-1.0009244680404663,0.025289146229624748,-0.04452114552259445,0.02245316468179226
2024-05-13 17:37:41.024506,0.5439060529372454,-0.9083579567773971,148.48670063143308,-0.015323469415307045,-0.006906492635607719,-0.9999324083328247,0.022315680980682373,-0.042487651109695435,0.021960970014333725
2024-05-13 17:37:41.063591,0.5650134185458474,-0.952371802510665,148.5102511236913,-0.016534151509404182,-0.01014559157192707,-0.9991266131401062,0.019783424213528633,-0.038038190454244614,0.0202151108533144
2024-05-13 17:37:41.081662,0.5823181296948979,-0.9872504836724524,148.52964886093412,-0.015299170278012753,-0.00882119033485651,-1.0022273063659668,0.015494542196393013,-0.0321304015815258,0.01790425181388855
2024-05-13 17:37:41.098859,0.5953833744426331,-1.0189266598871503,148.55426486270284,-0.013685433194041252,-0.006104078143835068,-0.9995119571685791,0.014295028522610664,-0.028919870033860207,0.017101934179663658
2024-05-13 17:37:41.118534,0.6077855572323483,-1.0473417409382841,148.5696464487137,-0.01383089181035757,-0.007807441521435976,-1.001113772392273,0.012124278582632542,-0.026272380724549294,0.015362344682216644
2024-05-13 17:37:41.141683,0.6167832108859294,-1.0730310429020542,148.5801102985222,-0.015586953610181808,-0.009565607644617558,-0.9993286728858948,0.009249739348888397,-0.024183880537748337,0.01324575673788786
2024-05-13 17:37:41.156453,0.6237400787207047,-1.0956524159897247,148.58475482715778,-0.016301840543746948,-0.010425782762467861,-0.9998999238014221,0.005966527387499809,-0.02072983607649803,0.010526102036237717
2024-05-13 17:37:41.182991,0.6270803613899583,-1.1145191060245925,148.58721369525898,-0.017067305743694305,-0.009775625541806221,-1.0002763271331787,0.004626339767128229,-0.017582731321454048,0.007882262580096722
2024-05-13 17:37:41.200769,0.6269496806612289,-1.1289966524657866,148.59132546913935,-0.016417572274804115,-0.008287186734378338,-1.0008556842803955,0.0016397989820688963,-0.013426525518298149,0.0062714749947190285
2024-05-13 17:37:41.212093,0.6272004233089624,-1.1392739527325402,148.5899184501703,-0.01649167574942112,-0.009486701339483261,-0.9995633363723755,0.000983787584118545,-0.010289103724062443,0.004456024616956711
2024-05-13 17:37:41.242984,0.6257542908347709,-1.1482139233041464,148.58648969520698,-0.01679082028567791,-0.010239477269351482,-1.0013034343719482,-0.000720106705557555,-0.009102714248001575,0.0034075749572366476
2024-05-13 17:37:41.261616,0.6229006591438807,-1.1555077115640737,148.5839352044574,-0.015517848543822765,-0.009138355031609535,-1.0012421607971191,-0.001281123491935432,-0.007648869417607784,0.0020371084101498127
2024-05-13 17:37:41.274817,0.6195511984079299,-1.1607277903589617,148.57849837387806,-0.01461863424628973,-0.007066713180392981,-1.0011509656906128,-0.001295402180403471,-0.005902791861444712,0.0016842022305354476
2024-05-13 17:37:41.302943,0.6145890126150627,-1.1656663372939984,148.56509754272648,-0.014782659709453583,-0.008692529983818531,-1.0028468370437622,-0.0030942733865231276,-0.006157646421343088,0.0006589063559658825
2024-05-13 17:37:41.321616,0.6100981098749265,-1.1715792534028195,148.55313105130062,-0.015039226040244102,-0.010516193695366383,-1.0011886358261108,-0.003969157114624977,-0.0068369461223483086,0.0007639811956323683
2024-05-13 17:37:41.336854,0.6042513078628369,-1.1784493564907945,148.54333656003084,-0.016069462522864342,-0.00991092249751091,-1.0011428594589233,-0.005064991768449545,-0.007120976690202951,0.00016755702381487936
2024-05-13 17:37:41.363736,0.59635907763774,-1.183979782006095,148.5419978429535,-0.01742471009492874,-0.00628452654927969,-1.0011228322982788,-0.004874821752309799,-0.006189258303493261,-0.00032944633858278394
2024-05-13 17:37:41.380940,0.5887546224922828,-1.1870515528636025,148.53791338982984,-0.015324024483561516,-0.00573586393147707,-1.00076425075531,-0.004895874764770269,-0.00583532452583313,-0.0007021726341918111
2024-05-13 17:37:41.399711,0.5823013743870902,-1.1914885077814663,148.5277637287232,-0.01488951500505209,-0.008412984199821949,-1.0008658170700073,-0.004996988456696272,-0.00526941055431962,-0.000506153330206871
2024-05-13 17:37:41.423733,0.5765093739709194,-1.1961180953782655,148.516507576971,-0.016080405563116074,-0.009247356094419956,-1.000508189201355,-0.004626581445336342,-0.004724941682070494,-0.0010293654631823301
2024-05-13 17:37:41.447575,0.5696699533733566,-1.2004315732825401,148.51176742568703,-0.017319442704319954,-0.006965417880564928,-1.001520037651062,-0.005362511146813631,-0.004731419961899519,-0.0014299503527581692
2024-05-13 17:37:41.459677,0.561747787709788,-1.205536926243713,148.51299685973763,-0.017335977405309677,-0.006075812969356775,-1.0000187158584595,-0.005486011505126953,-0.005719278939068317,-0.0014833406312391162
2024-05-13 17:37:41.479018,0.5561432973306752,-1.2089140279014612,148.51004621801619,-0.01584014482796192,-0.007101323921233416,-1.0007699728012085,-0.004621822852641344,-0.005970231257379055,-0.00133376638405025
2024-05-13 17:37:41.501457,0.5494003531551388,-1.2131490653519865,148.50006048144962,-0.015977926552295685,-0.008892007172107697,-1.005915641784668,-0.005552194081246853,-0.0047989352606236935,-0.0010633505880832672
2024-05-13 17:37:41.519607,0.536053629908405,-1.2199916342398698,148.48903655612924,-0.019541077315807343,-0.012288779020309448,-1.0063985586166382,-0.012854618951678276,-0.0066663785837590694,-0.0008609818760305643
2024-05-13 17:37:41.543166,0.5071263380303729,-1.2369815163568652,148.4702535359117,-0.028315622359514236,-0.015245623886585236,-1.0021482706069946,-0.026792382821440697,-0.010025699622929096,-0.003147685434669256
2024-05-13 17:37:41.561673,0.46007674001529875,-1.2494857784581601,148.46126500696394,-0.03495384007692337,-0.013897508382797241,-1.001281499862671,-0.04110930860042572,-0.007197857368737459,-0.006942418869584799
2024-05-13 17:37:41.576652,0.3933377343354877,-1.253486668486201,148.46444787511717,-0.03748663142323494,-0.009483183734118938,-1.0026295185089111,-0.056523360311985016,0.0014241491444408894,-0.009445829316973686
2024-05-13 17:37:41.602901,0.3134073655321341,-1.2461557410726616,148.46757610175706,-0.030134782195091248,-0.006697645410895348,-0.9987342953681946,-0.06731255352497101,0.007272413931787014,-0.009125403128564358
2024-05-13 17:37:41.621109,0.22143019721931767,-1.2324948291241071,148.46358727128177,-0.023786650970578194,-0.006187485530972481,-1.0034780502319336,-0.07876564562320709,0.011885393410921097,-0.008238823153078556
2024-05-13 17:37:41.636490,0.1170067700522984,-1.2127095853675784,148.44685330781522,-0.01756112650036812,-0.01030648872256279,-1.001420497894287,-0.09118295460939407,0.015117702074348927,-0.004288283176720142
2024-05-13 17:37:41.669579,0.003970252977729873,-1.1845327071637486,148.43744130713895,-0.01479729637503624,-0.004408146720379591,-1.0011305809020996,-0.09895706176757812,0.020682411268353462,-0.0033533964306116104
2024-05-13 17:37:41.681577,-0.11718484855860796,-1.1555776142813605,148.44981760991502,-0.017361560836434364,0.001973530277609825,-1.0002368688583374,-0.10411757230758667,0.023822475224733353,0.001556700561195612
2024-05-13 17:37:41.699551,-0.24790280982309706,-1.120951970283981,148.4627403278247,-0.015328997746109962,0.002606735099107027,-1.0002765655517578,-0.11184878647327423,0.028036130592226982,0.007808225229382515
2024-05-13 17:37:41.723655,-0.37655139719184416,-1.0786303039175837,148.47081361142364,-0.009041369892656803,0.0014386554248631,-0.9987413883209229,-0.11269589513540268,0.03209869936108589,0.01389941107481718
2024-05-13 17:37:41.732996,-0.504804340516833,-1.035010901608884,148.48586734835433,-0.006739657372236252,0.004243351053446531,-0.9998761415481567,-0.11213122308254242,0.033320192247629166,0.019103756174445152
2024-05-13 17:37:41.744473,-0.6367621545384513,-0.9916457104033556,148.52026418101454,-0.0050911917351186275,0.014115726575255394,-0.9996495842933655,-0.11228196322917938,0.033299677073955536,0.025492198765277863
2024-05-13 17:37:41.783340,-0.7627220486125935,-0.9472247213625314,148.56732418439591,-0.007692049723118544,0.019514575600624084,-0.9999722242355347,-0.10653704404830933,0.034883346408605576,0.02875860221683979
2024-05-13 17:37:41.793018,-0.8826533402488473,-0.901034713326674,148.60927520627814,-0.008366956375539303,0.016161497682332993,-0.9991394877433777,-0.10481502115726471,0.03705086559057236,0.031821511685848236
2024-05-13 17:37:41.805666,-1.0019902453447516,-0.8554854624123284,148.6480706807638,-0.005423933267593384,0.015275144949555397,-1.0013854503631592,-0.10441041737794876,0.035457793623209,0.03474026918411255
2024-05-13 17:37:41.843284,-1.1197089825767443,-0.8099574491174332,148.69420177841806,-0.007452546618878841,0.01809990406036377,-1.0001808404922485,-0.10290724784135818,0.036326274275779724,0.038249313831329346
2024-05-13 17:37:41.852490,-1.2412555072300004,-0.7649413264843188,148.75540027338138,-0.007831653580069542,0.026336411014199257,-0.9990304112434387,-0.10302969068288803,0.03669118508696556,0.03997557982802391
2024-05-13 17:37:41.879629,-1.364185785520419,-0.7179145669142818,148.82672110869467,-0.006440289784222841,0.02979089505970478,-0.9983263611793518,-0.10285864770412445,0.0384846106171608,0.04310119152069092
2024-05-13 17:37:41.900403,-1.4778842093739188,-0.6691666530342546,148.8892583207353,-0.006553733721375465,0.025529978796839714,-1.000357747077942,-0.09891095012426376,0.03898928314447403,0.044487737119197845
2024-05-13 17:37:41.906185,-1.5884720156690069,-0.6176918394889526,148.95609855195303,-0.0013895744923502207,0.031164273619651794,-0.9953156113624573,-0.0947815328836441,0.0413333997130394,0.04204389080405235
2024-05-13 17:37:41.939123,-1.6941505167764424,-0.5569234329999376,149.01937342442403,-0.003364154137670994,0.03349141776561737,-1.0010581016540527,-0.08989483118057251,0.04996994137763977,0.03767857328057289
2024-05-13 17:37:41.962054,-1.7901617388873712,-0.48603044500514225,149.08647320283023,-0.00849766656756401,0.04097330942749977,-0.9971997737884521,-0.08099537342786789,0.05911923199892044,0.03186795860528946
2024-05-13 17:37:41.981738,-1.8817416623308427,-0.4094687201643537,149.14044535765169,-0.004592736717313528,0.036570776253938675,-1.0003466606140137,-0.07870826125144958,0.0647273138165474,0.031820911914110184
2024-05-13 17:37:41.999760,-1.9678272321955677,-0.32806436452159965,149.1821231719671,-0.007142991293221712,0.03510546684265137,-0.9978020191192627,-0.07585073262453079,0.07031912356615067,0.028170576319098473
2024-05-13 17:37:42.016871,-2.0511593820511314,-0.2377074451459572,149.22067275964267,-0.003690834389999509,0.03719662129878998,-0.99904865026474,-0.07205758988857269,0.07599693536758423,0.023671111091971397
2024-05-13 17:37:42.041813,-2.1311274502970523,-0.13744540411226075,149.25810219629432,0.0063429661095142365,0.04733092710375786,-1.0001558065414429,-0.06639786064624786,0.08127819001674652,0.019469812512397766
2024-05-13 17:37:42.058835,-2.203382100535913,-0.039442107971108836,149.29577751975611,0.00018906776676885784,0.04532751813530922,-1.000615119934082,-0.06191929429769516,0.08407987654209137,0.017033303156495094
2024-05-13 17:37:42.076945,-2.268897061611264,0.06552186463569348,149.31701940807486,0.002239466179162264,0.042236920446157455,-0.9980464577674866,-0.05744735896587372,0.0884605422616005,0.015038183890283108
2024-05-13 17:37:42.087270,-2.3310274505094615,0.17437212816884712,149.34186763627537,0.005379972513765097,0.04450169578194618,-0.9971757531166077,-0.05433005094528198,0.0933176800608635,0.011637335643172264
2024-05-13 17:37:42.119081,-2.3919136777616594,0.2772833487855829,149.37131941197646,0.007737754378467798,0.046000439673662186,-0.9991538524627686,-0.051823586225509644,0.0876370519399643,0.013415985740721226
2024-05-13 17:37:42.133971,-2.4490808670107853,0.3692251388529328,149.39480160234297,0.018125642091035843,0.049741342663764954,-0.9989056587219238,-0.04744068160653114,0.07724057137966156,0.012372443452477455
2024-05-13 17:37:42.161732,-2.49792675141672,0.4531272893390752,149.41154922618782,0.020661236718297005,0.048470400273799896,-1.0000725984573364,-0.04202303662896156,0.07089704275131226,0.011832522228360176
2024-05-13 17:37:42.179728,-2.5407932320911315,0.5270308966539652,149.43281843526324,0.016396911814808846,0.04605050012469292,-1.0011322498321533,-0.037634119391441345,0.06226219981908798,0.011804033070802689
2024-05-13 17:37:42.202928,-2.579008353940764,0.5896732295747967,149.46303519215138,0.01478872075676918,0.04752904549241066,-0.999125063419342,-0.03308825567364693,0.05416544899344444,0.009794066660106182
2024-05-13 17:37:42.221824,-2.6160725889152503,0.6476814392263331,149.50030070426297,0.015166503377258778,0.050899606198072433,-0.9996591210365295,-0.03167717903852463,0.049595631659030914,0.01144991721957922
2024-05-13 17:37:42.239728,-2.6499200182340714,0.7037187657763507,149.52857768742683,0.01808382384479046,0.050321903079748154,-1.0006672143936157,-0.028747569769620895,0.04684511944651604,0.011137786321341991
2024-05-13 17:37:42.261925,-2.677768407027506,0.756135398375174,149.54925950023363,0.022922120988368988,0.0504629947245121,-0.9996815919876099,-0.02348077856004238,0.04159558191895485,0.00944579765200615
2024-05-13 17:37:42.281729,-2.7011457966789325,0.800144334909976,149.5618407086848,0.022164609283208847,0.048795413225889206,-0.9998375773429871,-0.020968062803149223,0.03522121161222458,0.00781108345836401
2024-05-13 17:37:42.298855,-2.7224969680243922,0.8367589513380045,149.57759112491084,0.017487697303295135,0.050233323127031326,-1.000881552696228,-0.017903665080666542,0.03169015794992447,0.008150853216648102
2024-05-13 17:37:42.323730,-2.7359249064892257,0.8773817148700669,149.5917432768711,0.016815608367323875,0.04812593013048172,-1.002181887626648,-0.012474169954657555,0.034326281398534775,0.004255363252013922
2024-05-13 17:37:42.337210,-2.7427066440048136,0.9215657283632034,149.6055949005079,0.016627538949251175,0.04822080209851265,-1.005250096321106,-0.0070856125093996525,0.03767836466431618,0.0023720753379166126
2024-05-13 17:37:42.359291,-2.746942641950691,0.9659813813187385,149.61612705220804,0.02109602466225624,0.04892544448375702,-1.0006877183914185,-0.003934615291655064,0.036733947694301605,-0.001554206246510148
2024-05-13 17:37:42.381716,-2.7434278692924847,1.0115238020439141,149.6346778459938,0.02219768799841404,0.05385138466954231,-0.9966185688972473,0.004392238333821297,0.03845430910587311,-0.003135241335257888
2024-05-13 17:37:42.401016,-2.7318955217657415,1.0620516205329644,149.66544101801554,0.022914517670869827,0.062327511608600616,-0.996881902217865,0.014057517983019352,0.043131086975336075,-0.005923446733504534
2024-05-13 17:37:42.419703,-2.7090940024387113,1.1201007579586681,149.6891144536788,0.023913150653243065,0.06123271957039833,-0.9961560368537903,0.023455433547496796,0.048699427396059036,-0.007223082706332207
2024-05-13 17:37:42.433869,-2.67358043384923,1.1829553603522989,149.69748826560124,0.02613181434571743,0.05359647795557976,-0.9961332678794861,0.032189201563596725,0.05239221826195717,-0.0072385226376354694
2024-05-13 17:37:42.446141,-2.6277626711231385,1.2469599958474304,149.69375898231442,0.024580884724855423,0.047544147819280624,-0.997900664806366,0.03906664252281189,0.05501304194331169,-0.009456882253289223
2024-05-13 17:37:42.479729,-2.5792890320269697,1.3129007765288492,149.70179128477835,0.024715347215533257,0.05447884649038315,-0.9952154755592346,0.045824650675058365,0.056325383484363556,-0.010295368731021881
2024-05-13 17:37:42.503210,-2.5259488831471666,1.3782692087021622,149.7151238140382,0.023005785420536995,0.05757180601358414,-0.9990267753601074,0.04942582547664642,0.057702165096998215,-0.009734799154102802
2024-05-13 17:37:42.521528,-2.470759887436406,1.4421998860551872,149.71967272002544,0.023120732977986336,0.04985347017645836,-0.9992207884788513,0.048889774829149246,0.05713193863630295,-0.0068144830875098705
2024-05-13 17:37:42.529036,-2.4127924988373306,1.504299965988943,149.6981986052749,0.029174741357564926,0.03837093710899353,-1.0002548694610596,0.048380251973867416,0.053653016686439514,-0.0027647344395518303
2024-05-13 17:37:42.569631,-2.359204969043526,1.5634821677649284,149.6920104538869,0.028833691030740738,0.04003439098596573,-0.9979872107505798,0.04646774008870125,0.051566582173109055,-0.0002666753134690225
2024-05-13 17:37:42.574835,-2.3082613627887514,1.6218054732527847,149.7024879640737,0.03393667936325073,0.045314013957977295,-0.9977338910102844,0.04617515206336975,0.04900459945201874,0.0020917500369250774
2024-05-13 17:37:42.586869,-2.2577098520810175,1.6778655315261337,149.71314305917892,0.03529322147369385,0.04556828737258911,-0.9992431998252869,0.044957131147384644,0.04654873535037041,0.004358790349215269
2024-05-13 17:37:42.623165,-2.2046153765679235,1.7294375151845498,149.71062954956435,0.03463495895266533,0.03681749105453491,-0.9983952641487122,0.04552087187767029,0.04358642175793648,0.007418114226311445
2024-05-13 17:37:42.632972,-2.149014008186023,1.7826884447183193,149.71011045518742,0.03382780775427818,0.037128694355487823,-0.999954342842102,0.04776406288146973,0.04458700865507126,0.008927268907427788
2024-05-13 17:37:42.659728,-2.0965619973417335,1.83515080756807,149.72271898439527,0.03707120940089226,0.04188380762934685,-0.999923825263977,0.04711538180708885,0.0433163084089756,0.01268024928867817
2024-05-13 17:37:42.681614,-2.0427490713053187,1.884179186090891,149.73260909831345,0.03962089121341705,0.03993859142065048,-0.999596893787384,0.04800572618842125,0.04012555629014969,0.01458562072366476
2024-05-13 17:37:42.701668,-1.9856527452688315,1.9315565798252727,149.73278668323186,0.041752029210329056,0.03428029641509056,-1.0003392696380615,0.04907003790140152,0.037341538816690445,0.01744949445128441
2024-05-13 17:37:42.718944,-1.9256119673698344,1.9736294778954935,149.72677611676227,0.04111602529883385,0.030258404091000557,-0.9999032616615295,0.049954161047935486,0.034165989607572556,0.016864627599716187
2024-05-13 17:37:42.743340,-1.8675863087194027,2.0095737752895086,149.72926230562015,0.04393158480525017,0.032954514026641846,-0.9978259801864624,0.050454281270504,0.027801113203167915,0.016411326825618744
2024-05-13 17:37:42.761576,-1.8097303375811635,2.0393201028985604,149.74845513718788,0.039842259138822556,0.038320910185575485,-0.9996201992034912,0.05177324265241623,0.024329934269189835,0.013762496411800385
2024-05-13 17:37:42.779414,-1.7483266167776315,2.0674039197749488,149.75062713734394,0.046561647206544876,0.033691972494125366,-0.9974515438079834,0.05320801958441734,0.020710093900561333,0.013254830613732338
2024-05-13 17:37:42.795062,-1.6820710070641576,2.089342914275853,149.743919891579,0.04257892072200775,0.029046500101685524,-1.0012794733047485,0.05626251921057701,0.017771190032362938,0.009711531922221184
2024-05-13 17:37:42.821532,-1.6175988237759973,2.1053106158948736,149.74349641985046,0.04463885724544525,0.028310704976320267,-0.9974029064178467,0.0563979372382164,0.010342935100197792,0.010054683312773705
2024-05-13 17:37:42.839813,-1.5526058385636237,2.115864965709836,149.75044955242552,0.0452103465795517,0.03361805900931358,-1.00003182888031,0.05879564955830574,0.007049801293760538,0.00650464603677392
2024-05-13 17:37:42.854652,-1.4838085447052587,2.125763403921065,149.75547657165464,0.0440092571079731,0.03164694830775261,-0.998985767364502,0.06094799190759659,0.0067194425500929356,0.0053357272408902645
2024-05-13 17:37:42.881727,-1.4151334472000134,2.1335487523578216,149.74905619383483,0.04685739427804947,0.026432588696479797,-1.0005428791046143,0.06022046506404877,0.0035730747040361166,0.004793558735400438
2024-05-13 17:37:42.899271,-1.3439463341840845,2.1349303715608685,149.73770441943427,0.04160038381814957,0.020356521010398865,-0.9995966553688049,0.06027931347489357,0.0010685543529689312,0.003916512709110975
2024-05-13 17:37:42.923828,-1.2831422826453385,2.132630091914455,149.71680404057403,0.03893536701798439,0.019024113193154335,-1.0025100708007812,0.05272648110985756,-0.001857820083387196,-0.0017902788240462542
2024-05-13 17:37:42.941558,-1.2360442863366923,2.12725131794307,149.7014634356982,0.04379596933722496,0.02309665083885193,-1.0014852285385132,0.04435077682137489,-0.006828872486948967,-0.002839494962245226
2024-05-13 17:37:42.951227,-1.1949796949426947,2.1189989553218136,149.68102750970152,0.044717177748680115,0.022627312690019608,-1.0004117488861084,0.037157539278268814,-0.008913960307836533,-0.005698331166058779
2024-05-13 17:37:42.982841,-1.1584039252155707,2.1053215015088633,149.64646675250125,0.04651976749300957,0.017525985836982727,-1.0001505613327026,0.031448472291231155,-0.01438137236982584,-0.009576390497386456
2024-05-13 17:37:43.000868,-1.1288759502165477,2.084494120295379,149.61377746713356,0.045020051300525665,0.015084443613886833,-0.9987462162971497,0.025728637352585793,-0.0191104207187891,-0.010438192635774612
2024-05-13 17:37:43.011065,-1.105229621866552,2.0578629992780875,149.59073240887395,0.0392516627907753,0.016570692881941795,-0.9997262954711914,0.020667290315032005,-0.023472441360354424,-0.014268793165683746
2024-05-13 17:37:43.042898,-1.0887578736311259,2.0308767084239556,149.5549148968664,0.04083728790283203,0.01992987096309662,-0.9985564351081848,0.015713131055235863,-0.02533075585961342,-0.01739540696144104
2024-05-13 17:37:43.056963,-1.0771038633597916,2.001447557724486,149.5255587438137,0.04458002373576164,0.020840268582105637,-0.998921811580658,0.012024962343275547,-0.028545696288347244,-0.017869437113404274
2024-05-13 17:37:43.070213,-1.0669607122772053,1.965834737948628,149.48345745776973,0.041976552456617355,0.014443074353039265,-0.9998462200164795,0.007750676944851875,-0.03258802741765976,-0.02159344032406807
2024-05-13 17:37:43.103726,-1.0615265497405197,1.9259829320191308,149.43421179385393,0.04153430834412575,0.014975250698626041,-0.9988915920257568,0.005271837580949068,-0.036749403923749924,-0.023661743849515915
2024-05-13 17:37:43.118258,-1.0613582496105023,1.884953558788041,149.40943186754512,0.03676562011241913,0.0232316292822361,-0.9998897910118103,0.0035265348851680756,-0.035330697894096375,-0.022118359804153442
2024-05-13 17:37:43.139587,-1.0613903728439427,1.8478107766381002,149.38694688479745,0.03098367154598236,0.023864200338721275,-0.9994568228721619,0.003053822321817279,-0.03125661239027977,-0.02132716216146946
2024-05-13 17:37:43.163423,-1.0595925389883483,1.8200454173317637,149.35429858056477,0.034664783626794815,0.020682772621512413,-0.9993765950202942,0.0028702837880700827,-0.026519523933529854,-0.018258215859532356
2024-05-13 17:37:43.180616,-1.0580041998412029,1.7957216195934673,149.32068038946997,0.03609624132514,0.016914622858166695,-1.001235842704773,0.001171801588498056,-0.022944249212741852,-0.01537961233407259
2024-05-13 17:37:43.199525,-1.0577098613766578,1.773978993031201,149.29626929337635,0.036811280995607376,0.019937865436077118,-0.9995357394218445,0.0014448537258431315,-0.021692326292395592,-0.013320271857082844
2024-05-13 17:37:43.222939,-1.0593157028835511,1.754358527588399,149.28706219837517,0.0352112352848053,0.024446282535791397,-1.0007240772247314,0.000636494136415422,-0.01964004896581173,-0.0117056705057621
2024-05-13 17:37:43.243416,-1.060681527274142,1.7358537308578361,149.27933042423473,0.033279478549957275,0.022101348266005516,-0.9999702572822571,0.0009023110615089536,-0.017585795372724533,-0.01096322387456894
2024-05-13 17:37:43.259732,-1.0594709829654632,1.7176188333211946,149.2603834794771,0.03256897255778313,0.01715102232992649,-1.0005040168762207,3.887261118507013e-05,-0.01636742427945137,-0.00931655615568161
2024-05-13 17:37:43.281402,-1.0575860641979513,1.7024525049908872,149.238403930728,0.0343109592795372,0.01790972612798214,-1.0000019073486328,0.0018460142891854048,-0.015307546593248844,-0.008171671070158482
2024-05-13 17:37:43.286460,-1.0613264465421794,1.6906423608639947,149.2236234013641,0.03901917114853859,0.023716850206255913,-0.9995185732841492,-0.0006132676498964429,-0.013185501098632812,-0.008222373202443123
2024-05-13 17:37:43.319732,-1.0694665379289536,1.677314527359184,149.20889751351356,0.04136129468679428,0.025263711810112,-0.9990195631980896,-0.003514230018481612,-0.014759328216314316,-0.011448241770267487
2024-05-13 17:37:43.336995,-1.078690708403056,1.6606900603627845,149.186016379794,0.042177870869636536,0.022527029737830162,-1.000422716140747,-0.005896911025047302,-0.01816725544631481,-0.015069689601659775
2024-05-13 17:37:43.361781,-1.0909759775640875,1.6392071944323905,149.15951524581436,0.04019893705844879,0.02115512266755104,-0.9998010993003845,-0.009232691489160061,-0.022377081215381622,-0.01794462651014328
2024-05-13 17:37:43.379726,-1.1059673890186192,1.613803799918409,149.1287110926576,0.038706082850694656,0.02008393406867981,-0.9993829131126404,-0.01127691101282835,-0.02445690892636776,-0.019795257598161697
2024-05-13 17:37:43.399525,-1.127216534413352,1.5820063878459436,149.10292029835162,0.035596467554569244,0.019651317968964577,-1.0055571794509888,-0.017577869817614555,-0.028518684208393097,-0.01986628957092762
2024-05-13 17:37:43.421823,-1.1540440233692812,1.5444211375038328,149.07553123977988,0.03182222321629524,0.014132672920823097,-1.0017659664154053,-0.023814305663108826,-0.03427540510892868,-0.019023051485419273
2024-05-13 17:37:43.439440,-1.18716798624461,1.5032527058901097,149.05107916255125,0.030581159517169,0.017700230702757835,-1.003169298171997,-0.02837848849594593,-0.03647428750991821,-0.019745895639061928
2024-05-13 17:37:43.462069,-1.2236298839116653,1.4592413147560748,149.0272418023479,0.028873775154352188,0.017799748107790947,-1.0018036365509033,-0.03198176249861717,-0.03857018053531647,-0.018233932554721832
2024-05-13 17:37:43.481725,-1.2668886735765295,1.41090139795725,149.0031858760911,0.02909030206501484,0.020013585686683655,-1.0013322830200195,-0.036547865718603134,-0.043704088777303696,-0.01699451543390751
2024-05-13 17:37:43.499075,-1.3120828613757403,1.3575893168860675,148.9816161386922,0.024021467193961143,0.018177643418312073,-0.9991897344589233,-0.040861520916223526,-0.04529765620827675,-0.015155849047005177
2024-05-13 17:37:43.523103,-1.3574669070895362,1.3119621591265014,148.96706783576008,0.02096196822822094,0.020474925637245178,-0.9984577298164368,-0.03948161005973816,-0.03949419781565666,-0.011408040300011635
2024-05-13 17:37:43.541599,-1.4055961552411484,1.2758775226893837,148.96429477895705,0.018797969445586205,0.027067117393016815,-0.9990550875663757,-0.04041123762726784,-0.03190072998404503,-0.010226338170468807
2024-05-13 17:37:43.555971,-1.4521966149574415,1.2449062433413722,148.97699893081327,0.018939893692731857,0.033352162688970566,-0.9991791248321533,-0.037976473569869995,-0.026793725788593292,-0.005465199705213308
2024-05-13 17:37:43.583741,-1.4934494634404374,1.222525954587062,148.97441711930702,0.02596801519393921,0.029550539329648018,-0.998892605304718,-0.035522837191820145,-0.022233931347727776,-0.002580510452389717
2024-05-13 17:37:43.601697,-1.5293540603599018,1.206690374439799,148.9691578736461,0.02517738938331604,0.025905122980475426,-1.0008134841918945,-0.03224775195121765,-0.016602078452706337,-0.0014738652389496565
2024-05-13 17:37:43.618571,-1.5661708076986804,1.1936125898916343,148.96985455294146,0.023281056433916092,0.026876699179410934,-0.9990928173065186,-0.032160062342882156,-0.013717953115701675,6.683813990093768e-05
2024-05-13 17:37:43.643235,-1.6044171990081073,1.181210033575949,148.9892659505626,0.022781463339924812,0.03258364647626877,-1.0006647109985352,-0.0306263267993927,-0.011392137967050076,0.0027927758637815714
2024-05-13 17:37:43.661403,-1.640053711002649,1.1729313106933648,149.00903251802063,0.020180219784379005,0.032997023314237595,-1.0003705024719238,-0.030136022716760635,-0.007278265431523323,0.004041464999318123
2024-05-13 17:37:43.671701,-1.6743813879974867,1.1699751194432186,149.01531629205704,0.024051282554864883,0.030819721519947052,-0.9999504089355469,-0.029325002804398537,-0.004676829557865858,0.005586276762187481
2024-05-13 17:37:43.703132,-1.7061405936992824,1.16973019312845,149.01534361281372,0.027867570519447327,0.030331673100590706,-1.0015578269958496,-0.027535052970051765,-0.0023827622644603252,0.007583543658256531
2024-05-13 17:37:43.720858,-1.7392511096396828,1.1704709484882792,149.02733742499626,0.023221097886562347,0.03222730755805969,-0.9994200468063354,-0.02833312749862671,-0.0005716183222830296,0.007820614613592625
2024-05-13 17:37:43.730688,-1.7767049855619768,1.1719722027235069,149.03808814274987,0.022433703765273094,0.031586676836013794,-0.9996242523193359,-0.031615354120731354,3.2707772334106266e-05,0.007887037470936775
2024-05-13 17:37:43.763725,-1.8149735749862062,1.1745781333352783,149.0437298790043,0.02123432792723179,0.02959311567246914,-1.000420331954956,-0.033568475395441055,0.001971194753423333,0.008490252308547497
2024-05-13 17:37:43.775424,-1.8567412489778918,1.1806657528764637,149.04581991689034,0.022844014689326286,0.030700931325554848,-0.9998237490653992,-0.03632908686995506,0.004027828108519316,0.009551986120641232
2024-05-13 17:37:43.789020,-1.9020550718092837,1.1917026982449697,149.05758150264109,0.026437513530254364,0.03641221299767494,-1.0016766786575317,-0.03798487037420273,0.006408507935702801,0.012131649069488049
2024-05-13 17:37:43.823722,-1.9472922684559244,1.2053574203345887,149.0749575038896,0.025101259350776672,0.037666257470846176,-0.9987589716911316,-0.0386100709438324,0.009085590951144695,0.011896933428943157
2024-05-13 17:37:43.836904,-1.9914212669097304,1.2215794397784863,149.09286625989338,0.02523808740079403,0.036731112748384476,-1.000778317451477,-0.03820943832397461,0.011887735687196255,0.012022032402455807
2024-05-13 17:37:43.844242,-2.035581854988448,1.2390117900876514,149.11327486513338,0.024039484560489655,0.037348732352256775,-1.0009301900863647,-0.03849036991596222,0.013518054038286209,0.0133134163916111
2024-05-13 17:37:43.883724,-2.08109097854142,1.2612632657430836,149.13817773484723,0.02474825643002987,0.03841016814112663,-0.9991707801818848,-0.03935082629323006,0.016650943085551262,0.015659760683774948
2024-05-13 17:37:43.899547,-2.1290905598205074,1.2852010510715683,149.16142769878195,0.026872579008340836,0.03921297937631607,-1.0009853839874268,-0.04134039208292961,0.018732573837041855,0.016063209623098373
2024-05-13 17:37:43.919689,-2.1768252578258456,1.3128015253424725,149.18238271915556,0.026923049241304398,0.03997097909450531,-0.9985901117324829,-0.041039638221263885,0.022606875747442245,0.016936954110860825
2024-05-13 17:37:43.943714,-2.2244732978060893,1.3458837600308409,149.20832377762326,0.024356646463274956,0.04124020040035248,-1.0025875568389893,-0.0404488630592823,0.026877734810113907,0.017341317608952522
2024-05-13 17:37:43.952429,-2.2709450511452096,1.382748638858927,149.24108136488266,0.022281408309936523,0.043836839497089386,-0.9994509816169739,-0.039828527718782425,0.031094979494810104,0.018821941688656807
2024-05-13 17:37:43.979719,-2.3184543529079376,1.4265058188897903,149.26890755556127,0.027429956942796707,0.0446900948882103,-1.0000637769699097,-0.03992578387260437,0.035910673439502716,0.02014824189245701
2024-05-13 17:37:44.003156,-2.362455712201629,1.4754187245269559,149.29811344445227,0.028766751289367676,0.04402034729719162,-1.0008111000061035,-0.038290128111839294,0.04007655009627342,0.02040186896920204
2024-05-13 17:37:44.013095,-2.406399228330787,1.5275638037454182,149.32114484233355,0.03125691041350365,0.042563386261463165,-0.9997378587722778,-0.0385400652885437,0.042294301092624664,0.02085818536579609
2024-05-13 17:37:44.024484,-2.4503888482368428,1.5848744269671142,149.34585646675066,0.030452724546194077,0.042773474007844925,-0.9997797012329102,-0.03896338865160942,0.04640711098909378,0.023390134796500206
2024-05-13 17:37:44.063739,-2.4973022159944867,1.6422679729542025,149.38040356357257,0.02852039225399494,0.04570559784770012,-0.9980183839797974,-0.04003516584634781,0.04961613565683365,0.024703271687030792
2024-05-13 17:37:44.071836,-2.543286464581598,1.702615682479027,149.40671345225547,0.03038831800222397,0.04508287459611893,-0.9990181922912598,-0.03974650800228119,0.050760623067617416,0.02544688805937767
2024-05-13 17:37:44.099723,-2.5887913192663383,1.7662713379962534,149.43479919012256,0.037411149591207504,0.04896004498004913,-0.9978931546211243,-0.03952951729297638,0.051534123718738556,0.027126600965857506
2024-05-13 17:37:44.118832,-2.630773503886645,1.8279863660155498,149.4582267389757,0.04146025702357292,0.04844222962856293,-1.0003427267074585,-0.03698340430855751,0.049097854644060135,0.027914751321077347
2024-05-13 17:37:44.146912,-2.6692705844829523,1.888314225303099,149.48698183538144,0.03900008276104927,0.05082438886165619,-0.9972314238548279,-0.033316470682621,0.048637717962265015,0.028987942263484
2024-05-13 17:37:44.158905,-2.703946814568872,1.9472886399179279,149.5249850079234,0.03900934010744095,0.052312884479761124,-0.998275637626648,-0.03096434660255909,0.0479963943362236,0.03062492609024048
2024-05-13 17:37:44.180633,-2.7359383534241544,2.0047049176283473,149.56076153879593,0.036421552300453186,0.048143867403268814,-0.9989644289016724,-0.029497018083930016,0.04900577291846275,0.03309602290391922
2024-05-13 17:37:44.201773,-2.7660932117229375,2.0645333193328397,149.5962102205883,0.039622124284505844,0.0498960055410862,-0.9988576769828796,-0.02665511704981327,0.04800892248749733,0.0336068794131279
2024-05-13 17:37:44.218932,-2.7963940653152295,2.1223824602819086,149.62995135508817,0.0413275845348835,0.05296941474080086,-1.001147985458374,-0.02650044485926628,0.04798377677798271,0.03368521109223366
2024-05-13 17:37:44.243271,-2.8250962277549156,2.1842018621294597,149.66949815038254,0.04195781424641609,0.055497318506240845,-0.9973336458206177,-0.02406941168010235,0.05001652613282204,0.03481143340468407
2024-05-13 17:37:44.261753,-2.8494748804499834,2.2451523358485375,149.70593037941538,0.04439813271164894,0.052287694066762924,-0.9990922212600708,-0.021560488268733025,0.04972601309418678,0.03657347336411476
2024-05-13 17:37:44.279356,-2.87036672157376,2.301901176011,149.73946660824015,0.04228244721889496,0.04820817708969116,-0.9981976747512817,-0.020894885063171387,0.04703250154852867,0.036983028054237366
2024-05-13 17:37:44.294983,-2.8921296252601247,2.3596510657736927,149.77374049749525,0.04714827984571457,0.0520101897418499,-0.9968326091766357,-0.020277708768844604,0.0467495322227478,0.039360832422971725
2024-05-13 17:37:44.321620,-2.913149105544016,2.4179994508624074,149.82503521816207,0.04774593189358711,0.055109504610300064,-0.9985793828964233,-0.01806507259607315,0.046558912843465805,0.03896717354655266
2024-05-13 17:37:44.338830,-2.9313302153409437,2.4734031706452004,149.86821567409487,0.04895228520035744,0.05516425147652626,-0.9964284896850586,-0.016558749601244926,0.043868206441402435,0.036997612565755844
2024-05-13 17:37:44.369391,-2.9439918919582664,2.5235960964215085,149.90322722378036,0.049224015325307846,0.053885526955127716,-0.9994980096817017,-0.013063205406069756,0.04108114913105965,0.03729970008134842
2024-05-13 17:37:44.381703,-2.9537793395954832,2.572276775626894,149.94460450977232,0.049061454832553864,0.05243423208594322,-0.9970979690551758,-0.010279402136802673,0.0398087352514267,0.0372537262737751
2024-05-13 17:37:44.399133,-2.961965534759155,2.6219482591487537,149.98880949408064,0.051460955291986465,0.05464625731110573,-0.9989563822746277,-0.007261356804519892,0.0390944667160511,0.035470567643642426
2024-05-13 17:37:44.423748,-2.966871958460751,2.668417237723524,150.0348722898432,0.05268653854727745,0.05654207989573479,-0.9975264668464661,-0.004488869570195675,0.0374908521771431,0.03636586666107178
2024-05-13 17:37:44.441736,-2.9705931308979387,2.7156697670621415,150.07956904777177,0.05319635570049286,0.05540752410888672,-0.9981153607368469,-0.0032567232847213745,0.03768050670623779,0.03620101511478424
2024-05-13 17:37:44.450794,-2.9699335907562094,2.7611812384926404,150.12274950370457,0.051125649362802505,0.052269529551267624,-0.999019205570221,-0.0018416688544675708,0.0372488833963871,0.036161087453365326
2024-05-13 17:37:44.482634,-2.9677560410714445,2.8054669044105336,150.16608022379913,0.053728893399238586,0.05228770524263382,-0.9982390999794006,-0.00011395564069971442,0.03567305952310562,0.03604290261864662
2024-05-13 17:37:44.500623,-2.967411970292005,2.8462924391835807,150.21144634026635,0.055263690650463104,0.052516285330057144,-0.9981698393821716,-0.0013593946350738406,0.032306477427482605,0.035001449286937714
2024-05-13 17:37:44.510727,-2.9642066905805655,2.885610423140759,150.2526460413399,0.05732368677854538,0.05330931395292282,-0.997961699962616,0.0008629306685179472,0.030133360996842384,0.03327362984418869
2024-05-13 17:37:44.542716,-2.958778824624521,2.919100548188624,150.28383268509015,0.05645087733864784,0.05308007821440697,-0.9982370734214783,0.004091212991625071,0.027390742674469948,0.029744533821940422
2024-05-13 17:37:44.556079,-2.9526333619188017,2.948219352167681,150.3103338190698,0.05398409068584442,0.052133504301309586,-0.9984996318817139,0.005069161299616098,0.024566782638430595,0.025611411780118942
2024-05-13 17:37:44.579516,-2.9437628671776594,2.975086541598161,150.33649344359097,0.05283551290631294,0.05176344886422157,-0.9978777170181274,0.006067696958780289,0.022122619673609734,0.023419847711920738
2024-05-13 17:37:44.603616,-2.9359442215686986,3.000124307548135,150.3588281621769,0.053961724042892456,0.05164369195699692,-0.9979962110519409,0.0061666336841881275,0.020885761827230453,0.022128740325570107
2024-05-13 17:37:44.618207,-2.9275520535128687,3.0242244165911134,150.37774778617782,0.05939219892024994,0.052830055356025696,-0.9976791143417358,0.006059842649847269,0.01772850938141346,0.020140593871474266
2024-05-13 17:37:44.624940,-2.916466656489938,3.0480248510842576,150.38467359799623,0.0624711811542511,0.050170786678791046,-0.9950881600379944,0.008627458475530148,0.01706252619624138,0.01868022046983242
2024-05-13 17:37:44.663904,-2.9064587218085767,3.0665013665627883,150.4064072599352,0.05749198794364929,0.05541711300611496,-0.9984344840049744,0.009343819692730904,0.014405741356313229,0.015150237828493118
2024-05-13 17:37:44.680637,-2.891142662925058,3.088459570970733,150.4266792613918,0.05948768928647041,0.05570776015520096,-0.9943073391914368,0.01454505417495966,0.01607777178287506,0.01422029547393322
2024-05-13 17:37:44.699582,-2.8716057605778826,3.112086689413688,150.45115865937714,0.0622880645096302,0.06041698902845383,-0.9973562955856323,0.01929929107427597,0.017227495089173317,0.012846686877310276
2024-05-13 17:37:44.723907,-2.8414293444945318,3.1350830825754747,150.46559767928252,0.06471367180347443,0.055285826325416565,-0.9945895075798035,0.026500893756747246,0.015242330729961395,0.016333894804120064
2024-05-13 17:37:44.731334,-2.8017886340990703,3.157437651398692,150.4782471896254,0.06617585569620132,0.05681885778903961,-0.997473418712616,0.03560555726289749,0.015434322878718376,0.01411351840943098
2024-05-13 17:37:44.744429,-2.7546855151485468,3.1752687140006564,150.499243191134,0.062012724578380585,0.05606330931186676,-0.9971106648445129,0.04097435995936394,0.013667249120771885,0.014885158278048038
2024-05-13 17:37:44.783356,-2.70280339821313,3.1921683095545608,150.51768470189305,0.05983996018767357,0.054529253393411636,-0.9960565567016602,0.0461464561522007,0.012713436037302017,0.016479700803756714
2024-05-13 17:37:44.791912,-2.6413649928552188,3.2085840288944514,150.5287905894835,0.05744832381606102,0.05384758487343788,-0.9987560510635376,0.05398232117295265,0.012801053933799267,0.014521206729114056
2024-05-13 17:37:44.819635,-2.5745998937183443,3.2264246964499366,150.53392689173936,0.0601760558784008,0.05074421688914299,-0.9983187913894653,0.05740927532315254,0.013140147551894188,0.01408299244940281
2024-05-13 17:37:44.837926,-2.505049784947397,3.243070721230904,150.54225972252675,0.06435585021972656,0.049928560853004456,-0.9994264841079712,0.061952266842126846,0.010837350971996784,0.014599212445318699
2024-05-13 17:37:44.846356,-2.427838124918399,3.255776153747597,150.54809270407796,0.061149127781391144,0.04456176236271858,-0.9988383650779724,0.06521283090114594,0.00856889970600605,0.014607441611588001
2024-05-13 17:37:44.879726,-2.3496454789698586,3.2660376592018947,150.56522281851633,0.0629391074180603,0.04558068886399269,-1.001000165939331,0.06791234761476517,0.007295752875506878,0.014707256108522415
2024-05-13 17:37:44.899742,-2.2701585121736008,3.274927150406666,150.59012568823022,0.060015950351953506,0.04261854663491249,-0.9973440170288086,0.06843908131122589,0.006716482806950808,0.016663070768117905
2024-05-13 17:37:44.921715,-2.1911833826782705,3.2833839918162,150.61147685957567,0.06162920221686363,0.04088098928332329,-0.9975852966308594,0.06810484826564789,0.005054654087871313,0.014132454991340637
2024-05-13 17:37:44.939726,-2.1126660893007423,3.2921919476377544,150.6237712000817,0.06623542308807373,0.0389678068459034,-0.9974333643913269,0.06819095462560654,0.004642348270863295,0.01087983138859272
2024-05-13 17:37:44.962206,-2.0310163004151174,3.29871114975712,150.6354098424274,0.06299453973770142,0.03650452569127083,-0.9988561868667603,0.07015962898731232,0.003549187211319804,0.011001155711710453
2024-05-13 17:37:44.981715,-1.9494612804042266,3.301712804453929,150.63741791804338,0.06294076144695282,0.036094989627599716,-0.9973713159561157,0.07194022834300995,0.0004728804633487016,0.00911708828061819
2024-05-13 17:37:44.999164,-1.8657449324078497,3.3021608221747996,150.6411881824652,0.06330013275146484,0.037889160215854645,-0.9974930286407471,0.07428956776857376,-0.001056445064023137,0.005118940025568008
2024-05-13 17:37:45.015120,-1.7820848267504195,3.3031894059751212,150.6357923330209,0.06021999940276146,0.0348370298743248,-0.9978429675102234,0.07396393269300461,0.0002490953484084457,0.0038119740784168243
2024-05-13 17:37:45.046761,-1.6989512859893152,3.3065596774436994,150.60836229331414,0.06685810536146164,0.030644236132502556,-0.998795747756958,0.07390818744897842,2.848297663149424e-05,0.0033492110669612885
2024-05-13 17:37:45.059650,-1.6130394590616022,3.306066196276166,150.5874619144539,0.06425033509731293,0.02757176198065281,-0.9986062049865723,0.0737636536359787,-0.0025743823498487473,0.003115287749096751
2024-05-13 17:37:45.076410,-1.5287198132624429,3.302391554502699,150.57776304583248,0.06338072568178177,0.028125174343585968,-0.9984192252159119,0.07359731942415237,-0.004806140437722206,0.0020307477097958326
2024-05-13 17:37:45.086831,-1.4451782754201359,3.297582247553364,150.58089127247234,0.06380604952573776,0.0317198671400547,-0.9995805621147156,0.0752597376704216,-0.005286807660013437,0.0009469350334256887
2024-05-13 17:37:45.119031,-1.3663892685796886,3.2931407036021514,150.5678729319143,0.0603247694671154,0.022725356742739677,-0.9974533319473267,0.06726177036762238,-0.004796149209141731,-0.0004346156492829323
2024-05-13 17:37:45.134525,-1.3007976813195867,3.2887126065858676,150.53836651469985,0.06125102937221527,0.014378031715750694,-1.0006824731826782,0.0552511028945446,-0.0052854642271995544,0.00022936498862691224
2024-05-13 17:37:45.161719,-1.2486272023351483,3.2829001156021866,150.5156219847637,0.061005812138319016,0.015096602030098438,-0.9986152648925781,0.0446014329791069,-0.005931848660111427,0.0010509327985346317
2024-05-13 17:37:45.178916,-1.209044975434455,3.2778026600472416,150.50752138040806,0.059349630028009415,0.022406870499253273,-0.9992219805717468,0.03687473013997078,-0.006257880479097366,-0.000470477098133415
2024-05-13 17:37:45.220907,-1.1502138880704906,3.27527591694116,150.47095254759182,0.06370732933282852,0.01765603944659233,-0.9982898831367493,0.025588328018784523,-0.0029215875547379255,-0.000673468632157892
2024-05-13 17:37:45.229196,-1.1284211023065072,3.2718102362676134,150.4273622803088,0.060690514743328094,0.012193609029054642,-0.9993090629577637,0.01729826256632805,-0.002997066592797637,-0.0007042903453111649
2024-05-13 17:37:45.269441,-1.1175511764075492,3.267797927017054,150.40439918431923,0.060610607266426086,0.017862703651189804,-0.9990283846855164,0.010270138271152973,-0.004036266356706619,-0.00018562644254416227
2024-05-13 17:37:45.281298,-1.1145563518999102,3.264740136703004,150.39041095689905,0.05901874974370003,0.02385547012090683,-0.9992409944534302,0.005548788700252771,-0.003748759627342224,0.0011655120179057121
2024-05-13 17:37:45.292546,-1.1142699108415928,3.263837271072093,150.36571299286027,0.06249643489718437,0.021504472941160202,-0.9982172250747681,0.0016323913587257266,-0.0027759261429309845,0.0014091371558606625
2024-05-13 17:37:45.322712,-1.110807751984337,3.264199697984927,150.33059216014806,0.06529498845338821,0.01697632111608982,-0.9975625872612,0.0017832324374467134,-0.0021484331227838993,0.0006633969023823738
2024-05-13 17:37:45.337106,-1.1100357271647139,3.2637230788469065,150.3041183469251,0.06315892189741135,0.019008692353963852,-0.9991561770439148,0.0005967636243440211,-0.002441895194351673,0.0007479233900085092
2024-05-13 17:37:45.359678,-1.1121769914695128,3.260802746089903,150.29213819512088,0.060340765863657,0.024126140400767326,-0.9980083703994751,0.0004568703006953001,-0.0028482999186962843,0.0009974921122193336
2024-05-13 17:37:45.383749,-1.1126361082477847,3.2606441576351117,150.2796526093181,0.060389768332242966,0.023600056767463684,-0.9987953901290894,0.00150035391561687,-0.0015080426819622517,0.003221700433641672
2024-05-13 17:37:45.399672,-1.1124965162566225,3.260864217792433,150.25286460739332,0.06198805943131447,0.018825562670826912,-0.9988784193992615,0.00015495001571252942,-0.0016298340633511543,0.0021186070516705513
2024-05-13 17:37:45.419671,-1.1118860680995526,3.2614046565105106,150.22413683174426,0.06350094825029373,0.018708333373069763,-0.9985530376434326,-5.72071221540682e-05,-0.001437528058886528,0.0008582444279454648
2024-05-13 17:37:45.443705,-1.1122042055044872,3.26218030986813,150.20475275487976,0.06303246319293976,0.022966569289565086,-0.9977154731750488,0.0007875751471146941,-0.0018486955668777227,0.0013544310349971056
2024-05-13 17:37:45.453322,-1.114165323569927,3.2604328486576644,150.1921715464286,0.06144942715764046,0.02458192966878414,-0.9985228180885315,0.0003455394762568176,-0.0032650067005306482,0.001994732767343521
2024-05-13 17:37:45.479511,-1.1140844285169447,3.259207470031882,150.17446769609992,0.060991041362285614,0.02066814713180065,-0.9980705976486206,0.0007801465690135956,-0.0019269108306616545,0.0012518229195848107
2024-05-13 17:37:45.503062,-1.1150558094829675,3.2594200596697984,150.15420935502166,0.06444922089576721,0.0195000059902668,-0.9976657032966614,-0.00044177615200169384,-0.002191876759752631,0.0012612702557817101
2024-05-13 17:37:45.511468,-1.118701316230756,3.256977413267873,150.13220248551588,0.06620605289936066,0.021853096783161163,-0.9987339377403259,-0.0016179070807993412,-0.004550021607428789,-0.0008144277962855995
2024-05-13 17:37:45.524512,-1.1258667182786282,3.2514722807968424,150.10967652163316,0.06757911294698715,0.025898132473230362,-0.9976680278778076,-0.003364589996635914,-0.007639097049832344,-0.0035954841878265142
2024-05-13 17:37:45.563569,-1.1324929622688926,3.2435336799905836,150.07670036832036,0.06645079702138901,0.02205837517976761,-0.9997354745864868,-0.005313906818628311,-0.009049812331795692,-0.006257019005715847
2024-05-13 17:37:45.572424,-1.1405414864321064,3.229879278066082,150.03918896939865,0.06263095885515213,0.015829700976610184,-1.0000190734863281,-0.007525352295488119,-0.01251209992915392,-0.007154065649956465
2024-05-13 17:37:45.599716,-1.1566397086972975,3.2100211433845045,150.00812526905344,0.05857103317975998,0.016381584107875824,-0.9992056488990784,-0.013354113325476646,-0.016756150871515274,-0.007119515910744667
2024-05-13 17:37:45.619116,-1.1787527663003312,3.1897429520689715,149.97044994559164,0.059876132756471634,0.01710401102900505,-0.9976682066917419,-0.018965471535921097,-0.018607638776302338,-0.00881922710686922
2024-05-13 17:37:45.626410,-1.2100669424890182,3.1684080024227903,149.9411211132956,0.0599638931453228,0.023197287693619728,-0.9984126091003418,-0.024352459236979485,-0.02019428089261055,-0.012388733215630054
2024-05-13 17:37:45.659720,-1.2417798309705048,3.145886093964908,149.8948807326146,0.06053417921066284,0.019201083108782768,-0.9978621006011963,-0.027443433180451393,-0.02105598710477352,-0.012756631709635258
2024-05-13 17:37:45.680995,-1.2786567693513442,3.1227671842848843,149.8622187680036,0.058608364313840866,0.02210107259452343,-0.999236524105072,-0.030794460326433182,-0.021168358623981476,-0.013345292769372463
2024-05-13 17:37:45.701707,-1.3191603247380486,3.098918511580727,149.83428329429825,0.0578729547560215,0.023676041513681412,-0.999631941318512,-0.03304308280348778,-0.021165087819099426,-0.01567775197327137
2024-05-13 17:37:45.719824,-1.364154516060625,3.0757720677006115,149.8107464624184,0.05858873575925827,0.027321312576532364,-0.9984334111213684,-0.036239221692085266,-0.02210387773811817,-0.017245234921574593
2024-05-13 17:37:45.743410,-1.4092637533820338,3.050309122474804,149.78148593201405,0.05929417908191681,0.025323310866951942,-0.9980683922767639,-0.037954650819301605,-0.02332538366317749,-0.01782183162868023
2024-05-13 17:37:45.761750,-1.4569464779166563,3.0251206654762663,149.740545778129,0.05863284319639206,0.023393431678414345,-0.9986857771873474,-0.041440751403570175,-0.023118017241358757,-0.018549086526036263
2024-05-13 17:37:45.779314,-1.5085184615750722,2.9977826198798785,149.69591732209213,0.05641840770840645,0.023425742983818054,-0.9993007779121399,-0.04460707679390907,-0.024378543719649315,-0.018753940239548683
2024-05-13 17:37:45.795190,-1.5648367863764123,2.9704575943315965,149.65943045154594,0.055749401450157166,0.028288692235946655,-0.9998730421066284,-0.04613863676786423,-0.024817049503326416,-0.019555581733584404
2024-05-13 17:37:45.821602,-1.621749657800661,2.943350921393343,149.6314949778406,0.05652580410242081,0.031624846160411835,-0.9986010193824768,-0.046515271067619324,-0.02409190870821476,-0.019387196749448776
2024-05-13 17:37:45.838854,-1.6789263452816015,2.918538978572802,149.59442071102575,0.05864916369318962,0.03141910210251808,-0.9992578625679016,-0.048075854778289795,-0.02456180937588215,-0.019860921427607536
2024-05-13 17:37:45.854750,-1.7352398676061813,2.8924350627820714,149.55576184032347,0.05749799683690071,0.029832910746335983,-0.9993444085121155,-0.048207756131887436,-0.024990422651171684,-0.020653169602155685
2024-05-13 17:37:45.881721,-1.791222445921133,2.864738432254258,149.52853670629182,0.05455678701400757,0.031903766095638275,-0.9990834593772888,-0.04832606017589569,-0.025197088718414307,-0.018319616094231606
2024-05-13 17:37:45.899089,-1.848687388729389,2.835927840561498,149.5047813083585,0.05247577652335167,0.03353084251284599,-0.9973123669624329,-0.048588477075099945,-0.024629218503832817,-0.01990804262459278
2024-05-13 17:37:45.922848,-1.9009280905962316,2.8060011532696754,149.47780206113694,0.05412506312131882,0.03592719882726669,-0.9982911944389343,-0.04294171556830406,-0.026926502585411072,-0.021975452080368996
2024-05-13 17:37:45.947765,-1.9439467564230875,2.777606989672875,149.4567240973583,0.06152423098683357,0.04060690104961395,-0.9961227774620056,-0.03528100624680519,-0.028922954574227333,-0.022249506786465645
2024-05-13 17:37:45.950121,-1.9794735585040857,2.741814237101069,149.42676688765863,0.0601000115275383,0.0405256450176239,-0.9996233582496643,-0.028767544776201248,-0.03299322724342346,-0.025089330971240997
2024-05-13 17:37:45.982850,-2.005836594596454,2.7040975056174354,149.39762930065933,0.05411151051521301,0.039485085755586624,-0.9962701201438904,-0.02093661203980446,-0.03391396626830101,-0.026700513437390327
2024-05-13 17:37:46.001067,-2.0216373834676324,2.660526234798043,149.36630605312567,0.05001477897167206,0.03991537541151047,-1.0003597736358643,-0.012825851328670979,-0.0359705351293087,-0.029780449345707893
2024-05-13 17:37:46.010918,-2.0326292922762983,2.615410487452582,149.33414952251326,0.044730573892593384,0.03981620445847511,-0.9995205402374268,-0.007352469023317099,-0.038180869072675705,-0.03159543499350548
2024-05-13 17:37:46.043718,-2.0391309920359157,2.574337358322122,149.29665178396988,0.047685667872428894,0.04031353443861008,-0.9975452423095703,-0.004081225488334894,-0.03647392988204956,-0.03192698583006859
2024-05-13 17:37:46.056688,-2.0415751325417224,2.532195091143143,149.23951042137355,0.05048045143485069,0.03593016415834427,-0.9984806776046753,-0.0013121196534484625,-0.03748403117060661,-0.035064347088336945
2024-05-13 17:37:46.079655,-2.042285472215404,2.4862853343066678,149.18814739881506,0.049746058881282806,0.03442532196640968,-0.9992877840995789,0.00011599883873714134,-0.04120325669646263,-0.03620440885424614
2024-05-13 17:37:46.103715,-2.0428658248514435,2.435042907275705,149.15049939610995,0.043895017355680466,0.037336837500333786,-0.9990893602371216,0.0009302563266828656,-0.043662115931510925,-0.03797132521867752
2024-05-13 17:37:46.118526,-2.042401585431294,2.3782641850356234,149.11114384611233,0.042982831597328186,0.04168890044093132,-1.0019397735595703,0.003486072877421975,-0.04751968011260033,-0.0451863631606102
2024-05-13 17:37:46.139778,-2.0359630649214995,2.319541633646439,149.06269048414026,0.048990439623594284,0.04129238799214363,-1.0019886493682861,0.008501403965055943,-0.05346884950995445,-0.04764792323112488
2024-05-13 17:37:46.169695,-2.020831634588982,2.2482984917349746,148.98855561088894,0.05645931512117386,0.037122201174497604,-0.9998205900192261,0.014143525622785091,-0.06487495452165604,-0.050188951194286346
2024-05-13 17:37:46.180930,-1.9992591224257317,2.159571346208747,148.911784284618,0.05620601400732994,0.038612060248851776,-0.9972558617591858,0.02188381552696228,-0.07791338860988617,-0.05719408020377159
2024-05-13 17:37:46.199412,-1.968191366655694,2.0691991923096045,148.85371401629456,0.04853185638785362,0.0431831032037735,-0.9993221759796143,0.03135565668344498,-0.07971315085887909,-0.06021825224161148
2024-05-13 17:37:46.222822,-1.9296253438374518,1.9751763022990898,148.81347054170485,0.038613203912973404,0.04558447748422623,-0.9967512488365173,0.03768213465809822,-0.07992617040872574,-0.06238045543432236
2024-05-13 17:37:46.233014,-1.8831994808318173,1.8754849956076993,148.7608371039607,0.03550710901618004,0.04089682549238205,-0.9988468289375305,0.044045910239219666,-0.08447670191526413,-0.06439173966646194
2024-05-13 17:37:46.244173,-1.825691209011014,1.7788489179094202,148.68812291005676,0.03946453705430031,0.034088313579559326,-0.9979028701782227,0.05093477666378021,-0.08570357412099838,-0.06274215877056122
2024-05-13 17:37:46.283302,-1.7666746393224013,1.6804619639060907,148.61095543281397,0.0421733558177948,0.03374757990241051,-0.9992184638977051,0.05405300110578537,-0.08745529502630234,-0.06373070925474167
2024-05-13 17:37:46.292114,-1.7030538818029657,1.576984811423809,148.5201548979878,0.03647946938872337,0.030652029439806938,-0.9947059154510498,0.05662769079208374,-0.08958816528320312,-0.06606011837720871
2024-05-13 17:37:46.305677,-1.6338493379153387,1.4765394091593669,148.4767422156232,0.02842494286596775,0.039361294358968735,-0.9989915490150452,0.06429231911897659,-0.08539518713951111,-0.05950719118118286
2024-05-13 17:37:46.343673,-1.5552296984219665,1.3884728709919265,148.44556923225127,0.015383584424853325,0.03613768517971039,-1.0012778043746948,0.07119327783584595,-0.07303807884454727,-0.051993705332279205
2024-05-13 17:37:46.351893,-1.4676667799841088,1.3176707031687511,148.41634968298195,0.01824650913476944,0.03379528969526291,-0.9990575909614563,0.0789697915315628,-0.06289264559745789,-0.04589659348130226
2024-05-13 17:37:46.379772,-1.3702875990484733,1.252203766861002,148.36763677382143,0.025826243683695793,0.028491567820310593,-1.0002776384353638,0.08493269234895706,-0.057720787823200226,-0.03949698433279991
2024-05-13 17:37:46.400300,-1.2725991386094833,1.190561309601637,148.32173790259893,0.0254573505371809,0.025314515456557274,-1.0007660388946533,0.08675740659236908,-0.053801700472831726,-0.0359945073723793
2024-05-13 17:37:46.421696,-1.1700262391402878,1.142291829128628,148.2886524662594,0.02484160102903843,0.028030116111040115,-0.999238908290863,0.09316190332174301,-0.04497404024004936,-0.03196870535612106
2024-05-13 17:37:46.438913,-1.059510149831485,1.097935620163213,148.2581761621828,0.020564576610922813,0.025624223053455353,-0.9998717308044434,0.09787219017744064,-0.03917645290493965,-0.028755299746990204
2024-05-13 17:37:46.462207,-0.9471690126321135,1.0541684082920062,148.22914785821024,0.017841024324297905,0.019184362143278122,-0.9993835091590881,0.09843110293149948,-0.03735681250691414,-0.022905075922608376
2024-05-13 17:37:46.481651,-0.8284910607085569,1.019596658756046,148.20037910142614,0.019048798829317093,0.01636270247399807,-0.9989392161369324,0.10367168486118317,-0.031199337914586067,-0.019365569576621056
2024-05-13 17:37:46.499055,-0.7059697399946931,0.9933581668943248,148.16844113686716,0.028101861476898193,0.018664170056581497,-1.0008589029312134,0.10874821245670319,-0.027119074016809464,-0.015636425465345383
2024-05-13 17:37:46.514940,-0.5868665020735975,0.9650184313674725,148.13909864419279,0.023461531847715378,0.013409235514700413,-1.0020482540130615,0.10477785021066666,-0.028144730255007744,-0.011811072006821632
2024-05-13 17:37:46.541528,-0.47152717863285487,0.9356926940009054,148.11042551005707,0.01750657893717289,0.006026394199579954,-1.0009956359863281,0.1010512113571167,-0.02608775906264782,-0.008000098168849945
2024-05-13 17:37:46.559569,-0.35735112178513007,0.9120155230779389,148.08482596104787,0.014061410911381245,0.0024897619150578976,-0.9994944334030151,0.09808240085840225,-0.020063573494553566,-0.0077482121996581554
2024-05-13 17:37:46.575880,-0.2510371462806189,0.8950812963305087,148.0738839979975,0.014614304527640343,0.004744363948702812,-1.0022927522659302,0.09350007772445679,-0.01617339439690113,-0.004020264372229576
2024-05-13 17:37:46.586887,-0.1519967486130027,0.8804099966324684,148.06281909154208,0.02167772687971592,0.007633696310222149,-0.9990890622138977,0.0899195522069931,-0.015510906465351582,-0.0010326729388907552
2024-05-13 17:37:46.619044,-0.049067385306284024,0.8712667212113485,148.03435086308147,0.0277227945625782,0.00519240228459239,-0.9996901154518127,0.09083303809165955,-0.011461477726697922,-0.0008228466031141579
2024-05-13 17:37:46.634960,0.05585495916515692,0.8635517557395547,148.0025904834409,0.020956628024578094,-0.0028906562365591526,-1.0023727416992188,0.08952341228723526,-0.009376093745231628,-0.0003404717135708779
