sTimestamp,sRoll,sPitch,sYaw,sAcc_x,sAcc_y,sAcc_z,sGyro_x,sGyro_y,sGyro_z
2024-05-13 17:22:15.085207,0.4012506685715061,9.381802702409653,172.1239636128529,0.17056095600128174,-0.0039136228151619434,-0.9870916604995728,0.00021827852469868958,-0.04012429341673851,0.0004608707095030695
2024-05-13 17:22:15.102469,0.4009536353838899,9.33599433119367,172.1355749344419,0.16948217153549194,-0.0027269581332802773,-0.9850075244903564,0.0014208222273737192,-0.042203254997730255,0.0011725169606506824
2024-05-13 17:22:15.135718,0.3994869856617619,9.287586219224849,172.1497680675372,0.1664930284023285,-0.003618000540882349,-0.9875792264938354,-0.0007509010611101985,-0.043563250452280045,0.0011225873604416847
2024-05-13 17:22:15.147759,0.3992282122056683,9.234720555048952,172.16125644572116,0.16619932651519775,-0.005186489783227444,-0.9863637089729309,-0.0014959885738790035,-0.046967316418886185,0.0009229331044480205
2024-05-13 17:22:15.177125,0.3982946107234922,9.18188306540338,172.17402889946908,0.16531845927238464,-0.004036565311253071,-0.9861384630203247,-0.00042540032882243395,-0.04797665774822235,0.0006557612796314061
2024-05-13 17:22:15.195948,0.3970302786750994,9.125100287738478,172.18909629677813,0.16606032848358154,-0.002462400123476982,-0.9879031777381897,-0.000543131900485605,-0.05065290257334709,-0.00015072975656948984
2024-05-13 17:22:15.210554,0.3974363547655978,9.061583797325591,172.20507893943596,0.16209588944911957,-0.0028865032363682985,-0.9868489503860474,0.00184587761759758,-0.05529725179076195,0.001054386142641306
2024-05-13 17:22:15.237997,0.3952907682317146,8.996836165314809,172.22056980847356,0.1623339205980301,-0.0025149222929030657,-0.9868318438529968,0.000796874170191586,-0.057393092662096024,0.00031904876232147217
2024-05-13 17:22:15.256033,0.39842251668787126,8.932107316324243,172.2238619596535,0.15977686643600464,-0.007932160049676895,-0.9863195419311523,0.0008216559654101729,-0.05686146020889282,0.0008668045047670603
2024-05-13 17:22:15.273252,0.40189966994478954,8.870481080764158,172.22128014814723,0.15753887593746185,-0.008538171648979187,-0.9897259473800659,0.002136519644409418,-0.05556672438979149,-0.002331542782485485
2024-05-13 17:22:15.297536,0.40353571369441915,8.807523812089565,172.21883494042436,0.1593407541513443,-0.005891516339033842,-0.9873287677764893,0.002491742605343461,-0.05669037252664566,-0.002391399350017309
2024-05-13 17:22:15.316042,0.4013192372674707,8.742209274377672,172.23067848844516,0.1597842276096344,-0.0018059108406305313,-0.9885825514793396,0.000550423632375896,-0.06019929051399231,0.0005413963226601481
2024-05-13 17:22:15.319248,0.4003092497243815,8.673997028910401,172.23657977188807,0.15790045261383057,-0.003392481245100498,-0.9899314641952515,0.0002537367690820247,-0.06155874952673912,0.0008811915758997202
2024-05-13 17:22:15.358063,0.399010553286727,8.603462519125324,172.23599237561945,0.15533533692359924,-0.005111729726195335,-0.9894435405731201,-0.0012498849537223577,-0.0633230060338974,0.0014069345779716969
2024-05-13 17:22:15.367346,0.3985067734745857,8.530061891209783,172.22802837504722,0.15638408064842224,-0.007498729508370161,-0.9885742664337158,-0.0008701805491000414,-0.06521802395582199,0.0012144575593993068
2024-05-13 17:22:15.378407,0.3954008516712282,8.453499739482172,172.22977690347471,0.15138380229473114,-0.00439949706196785,-0.9893518686294556,-0.001450953772291541,-0.06814174354076385,0.001526420470327139
2024-05-13 17:22:15.417596,0.39286434352906763,8.378733927506273,172.23085607336358,0.1510625183582306,-0.0032560124527662992,-0.989320695400238,-0.0009297056240029633,-0.06700260192155838,0.0001841292978497222
2024-05-13 17:22:15.429332,0.39237203630029777,8.303499393798583,172.23444875286702,0.14741888642311096,-0.0037614319007843733,-0.9892045855522156,0.00028648044099099934,-0.06573272496461868,0.0012487912317737937
2024-05-13 17:22:15.454040,0.3920755367212105,8.22741364776558,172.23910694188098,0.14816692471504211,-0.004131618421524763,-0.9894401431083679,0.00040139906923286617,-0.06852875649929047,0.0005859665689058602
2024-05-13 17:22:15.474636,0.39031457521496365,8.150288859205087,172.24398369694836,0.14883576333522797,-0.0019280505366623402,-0.9902476072311401,0.0008174496470019221,-0.06984767317771912,0.0015241313958540559
2024-05-13 17:22:15.495765,0.3891916227463048,8.073771957480728,172.24936588601432,0.14908277988433838,-0.003131632227450609,-0.9888556003570557,-0.0004577085201162845,-0.06988681107759476,0.001945761381648481
2024-05-13 17:22:15.513922,0.39144147638673643,7.992303168608108,172.23969433814958,0.14792896807193756,-0.009536379016935825,-0.9912146925926208,-9.34860436245799e-05,-0.07305203378200531,0.000894789642188698
2024-05-13 17:22:15.525681,0.3928956930301409,7.905641728418987,172.23581479070103,0.14728987216949463,-0.007186545059084892,-0.9888200759887695,0.0004113454488106072,-0.07754956185817719,-0.0006530232494696975
2024-05-13 17:22:15.555943,0.3905610223140395,7.816982457897636,172.25118271633355,0.14268897473812103,-0.002663035411387682,-0.9917738437652588,-0.000676445197314024,-0.07678792625665665,0.0018869912018999457
2024-05-13 17:22:15.571366,0.38914784016650794,7.731190159280398,172.2638322266764,0.13826501369476318,-0.0029474112670868635,-0.991694450378418,0.00023478893854189664,-0.07520756125450134,0.0006091004470363259
2024-05-13 17:22:15.585334,0.3889908792177299,7.647489606096476,172.27866739755368,0.13763707876205444,-0.0023921853862702847,-0.9908971786499023,0.0010798312723636627,-0.07400109618902206,0.0002969219349324703
2024-05-13 17:22:15.615437,0.3875709202418813,7.55928283560764,172.2981607574449,0.13466089963912964,-0.002924645319581032,-0.991677463054657,0.00027628272073343396,-0.07726331800222397,0.0013959796633571386
2024-05-13 17:22:15.631811,0.3878930597107826,7.470183871658469,172.30889781482014,0.13508126139640808,-0.0055022877641022205,-0.989944577217102,8.245163917308673e-05,-0.07926944643259048,0.00011407029523979872
2024-05-13 17:22:15.657890,0.39017594371915354,7.3796462991153655,172.3234187969956,0.13521471619606018,-0.002646300010383129,-0.9908079504966736,0.0026744187343865633,-0.0805521085858345,-0.0010126861743628979
2024-05-13 17:22:15.675887,0.39123035417227425,7.284999514012853,172.3308227220559,0.13498283922672272,-0.0045801266096532345,-0.9921475648880005,0.001657192362472415,-0.08501319587230682,0.00010224618017673492
2024-05-13 17:22:15.682329,0.3905848479348552,7.1869854456495235,172.3406172133257,0.1326984316110611,-0.0023631341755390167,-0.9907321333885193,0.0008663438493385911,-0.08663052320480347,0.002757500857114792
2024-05-13 17:22:15.718159,0.39026028054714734,7.090379250028863,172.34998823286696,0.1286587119102478,-0.004235637374222279,-0.9933631420135498,0.0003495171549730003,-0.08528746664524078,0.004325305111706257
2024-05-13 17:22:15.727675,0.3918293564263991,6.995753809267506,172.3406855152174,0.12685410678386688,-0.010688618756830692,-0.9930397272109985,-0.00025324802845716476,-0.08411507308483124,0.002413356676697731
2024-05-13 17:22:15.754041,0.39107816901982995,6.900489745818754,172.33885502451983,0.12734262645244598,-0.007131683174520731,-0.9921809434890747,-0.0004099713696632534,-0.08511229604482651,0.0011150299105793238
2024-05-13 17:22:15.773463,0.3854120735360548,6.8019079179806665,172.3516684594028,0.1250966489315033,1.804647035896778e-05,-0.9940707087516785,-0.0016685661394149065,-0.08667122572660446,0.0018270463915541768
2024-05-13 17:22:15.796035,0.38179567513351814,6.7057277554094865,172.3606160072155,0.12238772213459015,0.0007596078794449568,-0.9926257729530334,-0.0012141759507358074,-0.08675868064165115,0.003086308017373085
2024-05-13 17:22:15.814013,0.3805722174984396,6.608678451266421,172.36542446039118,0.118928924202919,-0.0019330850336700678,-0.9934642314910889,6.447816849686205e-05,-0.08476133644580841,0.0022278479300439358
2024-05-13 17:22:15.835348,0.3845180391262971,6.512251121224651,172.35956415808332,0.11871802806854248,-0.00902437325567007,-0.9935442805290222,0.0018735919147729874,-0.0853077694773674,0.0009642002987675369
2024-05-13 17:22:15.855944,0.38583421124327333,6.413911338215276,172.36255578093977,0.12134034186601639,-0.006393871270120144,-0.9951092600822449,0.001974275568500161,-0.08971379697322845,0.0019405627390369773
2024-05-13 17:22:15.873423,0.3866697888386892,6.3107272435370705,172.38008204635003,0.12080328911542892,-0.0015485970070585608,-0.9939308166503906,0.0025302311405539513,-0.09225224703550339,0.0017726242076605558
2024-05-13 17:22:15.897923,0.38734333620430234,6.204007245302914,172.40035404780662,0.11916342377662659,-0.0015160947805270553,-0.994570791721344,0.0022326107136905193,-0.09540704637765884,0.0025776135735213757
2024-05-13 17:22:15.916025,0.38804356399636086,6.095959629048836,172.41531216208895,0.11286226660013199,-0.005227928049862385,-0.9938589334487915,0.001127211726270616,-0.09572803974151611,0.0026280039455741644
2024-05-13 17:22:15.934016,0.3930027882618926,5.987650758059005,172.4255301250873,0.1050146296620369,-0.0105212964117527,-0.9958416223526001,0.0018238163320347667,-0.09258338063955307,0.0007021012715995312
2024-05-13 17:22:15.948091,0.3940769689110093,5.879998865889965,172.43622620132754,0.10324466973543167,-0.0052047488279640675,-0.9952265024185181,0.002067910972982645,-0.09362584352493286,-0.0017220291774719954
2024-05-13 17:22:15.960606,0.39247000682620514,5.775376589504648,172.46615609027052,0.10612133890390396,0.002909247763454914,-0.9950773119926453,0.0021947792265564203,-0.09266946464776993,0.0007190353935584426
2024-05-13 17:22:15.993437,0.3937861789431813,5.6717288957365275,172.48951533723198,0.10493754595518112,0.0014942195266485214,-0.9956128001213074,0.0035956213250756264,-0.09229175746440887,0.0012453963281586766
2024-05-13 17:22:16.035243,0.40259192028934093,5.445607799300439,172.4742703550045,0.10334300994873047,-0.010516098700463772,-0.9950554966926575,0.001191035145893693,-0.10288066416978836,0.0021429804619401693
2024-05-13 17:22:16.053431,0.3993790099759375,5.326453014795451,172.47937933650368,0.09770067036151886,-0.005221727769821882,-0.9965928196907043,-0.002158321440219879,-0.10253037512302399,0.00523401377722621
2024-05-13 17:22:16.077807,0.39415228775486455,5.214113051534843,172.48834054469472,0.09382548183202744,-0.0028511786367744207,-0.9954860210418701,-0.0017596161924302578,-0.09848524630069733,0.003997622057795525
2024-05-13 17:22:16.095787,0.3912013525487282,5.104958944635223,172.49030763917568,0.09497043490409851,-0.0036304921377450228,-0.9955891370773315,-0.0016474438598379493,-0.0981336459517479,0.0004836762382183224
2024-05-13 17:22:16.116506,0.38736857588771967,4.989360127366873,172.4952936772698,0.09327270090579987,-0.003391020465642214,-0.9949307441711426,-0.0025219996459782124,-0.10245393961668015,0.0011124233715236187
2024-05-13 17:22:16.138042,0.3865943632731281,4.8740400671940245,172.50074416822747,0.09228725731372833,-0.005152262281626463,-0.998681366443634,0.00023619890271220356,-0.10145930200815201,0.001963778166100383
2024-05-13 17:22:16.152845,0.3843349046791762,4.764551707911896,172.51459579186425,0.0917794406414032,-0.00016854979912750423,-0.996342122554779,5.5604265071451664e-05,-0.09835512936115265,0.0001651103957556188
2024-05-13 17:22:16.173896,0.384248566819199,4.6564323746715335,172.52366628308204,0.08939924836158752,-0.004686901345849037,-0.9975707530975342,0.00023455049085896462,-0.09759533405303955,0.0019689530599862337
2024-05-13 17:22:16.198074,0.3832833490316851,4.543872564697016,172.54070077487205,0.08612282574176788,-0.0037261054385453463,-0.9975742101669312,-0.0008709996473044157,-0.09967752546072006,0.0020059477537870407
2024-05-13 17:22:16.210376,0.3816419158359135,4.4257598109272775,172.55837730444404,0.08696521073579788,-0.005394806154072285,-0.9963340759277344,-0.0006832852959632874,-0.10436030477285385,0.0022313175722956657
2024-05-13 17:22:16.233891,0.37857086534992007,4.304688304586455,172.5816409287571,0.08423180133104324,-0.0026104790158569813,-0.9975240230560303,-0.0015582338673993945,-0.10719618946313858,0.0025792678352445364
2024-05-13 17:22:16.258051,0.3774515947801107,4.181617687252934,172.60482259080013,0.0768481120467186,-0.004718834534287453,-0.9952162504196167,-0.0004379680030979216,-0.10704135149717331,0.0006968106608837843
2024-05-13 17:22:16.272761,0.3785979193023357,4.0608471361224145,172.61401602542296,0.0708313137292862,-0.0063860006630420685,-0.9994274377822876,0.000855596037581563,-0.10433126240968704,-0.0019798942375928164
2024-05-13 17:22:16.293891,0.381294483322742,3.942411655914394,172.62315481853244,0.06866341829299927,-0.0037053783889859915,-0.9976823925971985,0.0031411927193403244,-0.10248925536870956,-0.001947584212757647
2024-05-13 17:22:16.318215,0.37996825268499596,3.8270740933817966,172.63742991389776,0.07399468123912811,-0.002596211852505803,-0.9998257756233215,0.00023393174342345446,-0.10333876311779022,0.0012013667728751898
2024-05-13 17:22:16.335270,0.37775436425941267,3.7091722217026826,172.65503814157807,0.07419469207525253,-0.0019674620125442743,-0.9978851675987244,-0.0001383685157634318,-0.10536785423755646,0.0019420048920437694
2024-05-13 17:22:16.354037,0.37834792370654263,3.589469314516801,172.6523197262884,0.07633508741855621,-0.006236704532057047,-0.9973610043525696,-0.00039877311792224646,-0.10807032138109207,0.0010617986554279923
2024-05-13 17:22:16.374494,0.3775174153921514,3.460218016314653,172.6524290093151,0.06684698164463043,-0.0064809261821210384,-0.9972290992736816,-0.001146187772974372,-0.1128406673669815,0.0032432246953248978
2024-05-13 17:22:16.395880,0.37509360537129605,3.3288478653659204,172.66667678392378,0.060355156660079956,-0.002004163572564721,-0.9980285167694092,-0.000921082915738225,-0.11307249218225479,0.005587851628661156
2024-05-13 17:22:16.413905,0.3739547246880493,3.205394543995467,172.68203104917797,0.05906989052891731,-0.0027418530080467463,-0.9981184005737305,-0.0002048249589279294,-0.1091931164264679,0.0027666324749588966
2024-05-13 17:22:16.430240,0.37566824839607627,3.0836445010492857,172.68802795526923,0.061131883412599564,-0.005126111209392548,-1.0010926723480225,0.002214425941929221,-0.10892689973115921,0.0009260826627723873
2024-05-13 17:22:16.456038,0.37840608703619355,2.9607516820775968,172.69681157854185,0.06390292942523956,-0.005683558061718941,-0.9987162947654724,0.0018452252261340618,-0.11088786274194717,0.0024960925802588463
2024-05-13 17:22:16.473985,0.3766779958153274,2.8358855787660087,172.7166601082699,0.05970437824726105,-0.0026163728907704353,-1.001706600189209,0.0008856171043589711,-0.11100221425294876,0.0009951656684279442
2024-05-13 17:22:16.497456,0.37531972198542046,2.711453832796951,172.7401013175014,0.05152890458703041,-0.0021135383285582066,-0.9990692138671875,0.000727565900888294,-0.10990199446678162,0.0017377689946442842
2024-05-13 17:22:16.508083,0.3734727161038874,2.586119434640394,172.76387037581304,0.04618366062641144,-0.0028660630341619253,-0.996532142162323,0.0005252933478914201,-0.10927093029022217,0.0009789671748876572
2024-05-13 17:22:16.534037,0.37465548608863675,2.460044174402302,172.78386916970285,0.043414406478405,-0.0070502604357898235,-1.0015476942062378,0.00028088936232961714,-0.1099717989563942,0.0041418904438614845
2024-05-13 17:22:16.554659,0.37215232847953283,2.3367552044587523,172.80813000163474,0.04803755134344101,-0.003211083123460412,-0.9989933371543884,-0.00020519792451523244,-0.1102127954363823,0.003427156014367938
2024-05-13 17:22:16.576009,0.3732611670026021,2.2112656329419886,172.82292419137698,0.049780502915382385,-0.005886624567210674,-1.0004398822784424,0.0017300532199442387,-0.11297857016324997,0.000994883943349123
2024-05-13 17:22:16.594154,0.3747339265423861,2.0807498959697424,172.83229521091823,0.04644465446472168,-0.003258263226598501,-1.0003175735473633,0.0029643424786627293,-0.11643117666244507,-0.0007322596502490342
2024-05-13 17:22:16.616855,0.3744283022574545,1.9496106907923205,172.8382921170095,0.03811490163207054,-0.004040323197841644,-0.9996607899665833,0.0003312666085548699,-0.1153079941868782,0.0009120111935772002
2024-05-13 17:22:16.635865,0.37473512716157614,1.8220914858750057,172.84568238169146,0.0310567207634449,-0.005659792572259903,-1.0002574920654297,0.0004355745331849903,-0.11062914878129959,0.0018667485564947128
2024-05-13 17:22:16.653690,0.3711943144071592,1.6980243012528975,172.85461626912584,0.032336391508579254,-0.003909587394446135,-0.9980657696723938,-0.0016971775330603123,-0.1097935140132904,0.0022166084963828325
2024-05-13 17:22:16.669674,0.369464782443265,1.5745874150251344,172.86415121320718,0.03704448416829109,-0.002807407174259424,-0.999394416809082,-0.0007139649242162704,-0.11148213595151901,0.002815118059515953
2024-05-13 17:22:16.696048,0.36505010568148316,1.4497421224461737,172.88043438418848,0.039496295154094696,-0.0011470995377749205,-0.9982200860977173,-0.0008434486808255315,-0.11213494837284088,0.004673303570598364
2024-05-13 17:22:16.713196,0.36517990595613986,1.323616489562953,172.8896278188113,0.0344802625477314,-0.005220141261816025,-1.0009642839431763,-0.000523015798535198,-0.11376684159040451,0.0017000860534608364
2024-05-13 17:22:16.729252,0.36668075998497085,1.1918362070989021,172.90567876336084,0.026733145117759705,-0.00516501534730196,-0.9990973472595215,0.001469060662202537,-0.11595319956541061,0.0010569544974714518
2024-05-13 17:22:16.756036,0.3657758666416499,1.0591212559356173,172.9277129536233,0.02017241343855858,-0.0049215322360396385,-0.9999740123748779,0.00036567472852766514,-0.1154819205403328,-0.00016382575267925858
2024-05-13 17:22:16.773213,0.3636922854188258,0.9238539484568634,172.94864065324023,0.01644454523921013,-0.0029881750233471394,-1.0013328790664673,-1.5444165910594165e-05,-0.11718793958425522,0.00012500917364377528
2024-05-13 17:22:16.798034,0.36242483176053886,0.7958070580653122,172.9686940886434,0.019840827211737633,-0.0031187408603727818,-1.0001283884048462,0.0003888505743816495,-0.11337307095527649,0.0025778161361813545
2024-05-13 17:22:16.815184,0.3620712360688585,0.6738888750716722,172.98557831627167,0.01827232539653778,-0.004629923962056637,-1.000960111618042,0.0004056541947647929,-0.1095871701836586,0.0005357718328014016
2024-05-13 17:22:16.825578,0.3615341590845133,0.5497208917984534,173.00824088393776,0.018111707642674446,-0.002546008676290512,-1.000198245048523,0.0006854578386992216,-0.11171522736549377,0.0016424133209511638
2024-05-13 17:22:16.857901,0.3599653233290996,0.4238718815766181,173.02903197977128,0.015250008553266525,-0.0021048779599368572,-1.0007044076919556,0.00041184257133863866,-0.11176769435405731,0.0026145982556045055
2024-05-13 17:22:16.875415,0.360116974873015,0.293938044705145,173.04532881113093,0.007609511259943247,-0.0014366533141583204,-1.000413179397583,0.002272889018058777,-0.11320870369672775,-7.045204984024167e-05
2024-05-13 17:22:16.886308,0.3632828475945953,0.16929229503556914,173.04456382994388,0.00961914099752903,-0.00720997666940093,-0.9990031123161316,0.0015676456969231367,-0.1110980212688446,-0.0004035824094898999
2024-05-13 17:22:16.917700,0.3673163944646051,0.03769614086452433,173.03909967860787,0.00518971448764205,-0.009960147552192211,-1.0025607347488403,0.0017711012624204159,-0.1144963875412941,-0.00021455984096974134
2024-05-13 17:22:16.935747,0.3659563063656999,-0.09175476027796789,173.0486346226892,0.009796276688575745,-0.0026378182228654623,-0.9978610873222351,0.0004156891372986138,-0.11687424033880234,0.0011569753987714648
2024-05-13 17:22:16.946269,0.36482681719256194,-0.22081913541243955,173.0661335673428,0.005961236078292131,-0.0013403662014752626,-1.0019696950912476,0.0026483917608857155,-0.1140143871307373,0.0031346692703664303
2024-05-13 17:22:16.978034,0.3627478783639393,-0.34401221590334474,173.08404232334655,0.002966660540550947,-0.0002231416874565184,-1.0002412796020508,-5.709132528863847e-05,-0.11145472526550293,0.001763814245350659
2024-05-13 17:22:16.992297,0.3645116946758158,-0.4733754918552838,173.10021621130116,-0.00218376237899065,-0.005828740540891886,-0.9984926581382751,0.0007345120538957417,-0.11359580606222153,0.0033245612867176533
2024-05-13 17:22:17.019137,0.3648809517778196,-0.605180533755076,173.12050187313608,-0.009637647308409214,-0.0035203236620873213,-1.0015754699707031,0.00045420826063491404,-0.1135069876909256,0.002926671877503395
2024-05-13 17:22:17.038034,0.3665149411346129,-0.7321123957646227,173.13632059125385,-0.007162465713918209,-0.004613636527210474,-0.9999191164970398,0.00089583161752671,-0.11217798292636871,0.001875131856650114
2024-05-13 17:22:17.054190,0.36887415784304406,-0.8584304478833674,173.14873787516493,-0.010627670213580132,-0.005788608454167843,-1.0002623796463013,0.0023395305033773184,-0.11138582974672318,0.0013768263161182404
2024-05-13 17:22:17.073797,0.36997643298120775,-0.9870416292942381,173.1731626316369,-0.00827987864613533,-0.005026307422667742,-1.0026416778564453,0.001311162835918367,-0.1141301766037941,0.0011477211955934763
2024-05-13 17:22:17.098039,0.3683418833354591,-1.111943911264086,173.19406301049713,-0.010162469930946827,-0.0020929418969899416,-1.0002614259719849,5.301262717694044e-08,-0.11143457144498825,0.0008705707150511444
2024-05-13 17:22:17.107518,0.36599272514779785,-1.2412217831709735,173.21109750228715,-0.01635206863284111,-0.0027626724913716316,-1.0025997161865234,-0.00047695444663986564,-0.11249854415655136,0.0018657365581020713
2024-05-13 17:22:17.133804,0.36440676055860616,-1.3720106209883147,173.22963463569457,-0.01720673032104969,-0.0017611198127269745,-0.9976792335510254,-4.2663850763347e-05,-0.1161174327135086,0.0009459824068471789
2024-05-13 17:22:17.157306,0.3654479642006364,-1.5036378645262751,173.2552888262171,-0.025800039991736412,-0.0013150451704859734,-1.0033173561096191,0.0028645505663007498,-0.11282767355442047,0.0026501750107854605
2024-05-13 17:22:17.167675,0.36840231450135785,-1.6262089175550332,173.26829350639682,-0.024369249120354652,-0.005112872458994389,-1.0011844635009766,0.0026365802623331547,-0.10909291356801987,0.00045346864499151707
2024-05-13 17:22:17.180089,0.3713895617678864,-1.7487066527719193,173.27419478983973,-0.023187963292002678,-0.009082620032131672,-1.0017242431640625,0.0019451002590358257,-0.10908526927232742,0.00032946307328529656
2024-05-13 17:22:17.218166,0.3711655529074511,-1.87492513353917,173.2798228657158,-0.02329307235777378,-0.007184105459600687,-0.9994142651557922,0.0005571224028244615,-0.11228101700544357,-0.00023563203285448253
2024-05-13 17:22:17.241876,0.3683401757881666,-1.9999146071426415,173.29400233843276,-0.025909464806318283,-0.003560401266440749,-1.0011107921600342,-0.0010532609885558486,-0.1106618121266365,0.0014052538899704814
2024-05-13 17:22:17.254037,0.3645345598012794,-2.122843924937708,173.31521690599482,-0.03443092107772827,-0.0003394077648408711,-0.9987043142318726,-0.0009024640894494951,-0.10803964734077454,0.0015535526908934116
2024-05-13 17:22:17.273333,0.36429192800318533,-2.243706256735199,173.32786641633768,-0.036397386342287064,-0.004917251877486706,-0.9987156391143799,-0.00019210969912819564,-0.10630808025598526,0.0007796417339704931
2024-05-13 17:22:17.296024,0.3611907019548822,-2.364984803185238,173.34703192714872,-0.03992579132318497,-0.002046537585556507,-1.0005234479904175,-0.0011015498312190175,-0.10639254748821259,0.0012988257221877575
2024-05-13 17:22:17.313953,0.3600883734558656,-2.488670991317706,173.36916174005958,-0.0342312790453434,-0.0017330085393041372,-1.0014170408248901,0.0003462419263087213,-0.1107856035232544,0.0029665594920516014
2024-05-13 17:22:17.335166,0.35976292561408507,-2.6111559199298986,173.38649676017306,-0.03264303505420685,-0.0023510234896093607,-0.9991445541381836,0.0008157644188031554,-0.11136506497859955,0.00256614969111979
2024-05-13 17:22:17.355867,0.3623759798997174,-2.740008078952424,173.39325864745138,-0.04032479599118233,-0.007190697360783815,-0.9984222650527954,0.0004665846936404705,-0.11239414662122726,0.0010297573171555996
2024-05-13 17:22:17.373422,0.36371413668808455,-2.8643309687815846,173.40150951596877,-0.04837069660425186,-0.008276832289993763,-0.9998082518577576,0.0006334747304208577,-0.10925554484128952,-0.0004682340077124536
2024-05-13 17:22:17.397756,0.3617587015534775,-2.989551388156367,173.42120778153506,-0.05342596396803856,-0.005025888793170452,-0.999733030796051,-0.0004864665097557008,-0.10846475511789322,-0.000988710904493928
2024-05-13 17:22:17.415920,0.3579605827664215,-3.1059538198692516,173.45239442528535,-0.04673049598932266,-0.00015153357526287436,-0.9997997879981995,-0.0002720237534958869,-0.10464806854724884,0.0016249915352091193
2024-05-13 17:22:17.433949,0.3567001460602897,-3.2232990311310092,173.47567170997675,-0.04561662673950195,-0.0013413098640739918,-1.0028988122940063,0.0011989824706688523,-0.10556420683860779,0.0012640870409086347
2024-05-13 17:22:17.449009,0.35602232982644527,-3.3424015220001646,173.49277450365847,-0.046693410724401474,-0.0024718462955206633,-0.9992067813873291,0.00022772577358409762,-0.10891380161046982,-0.001129714073613286
2024-05-13 17:22:17.476037,0.3585183370812618,-3.469152330635853,173.5078692217242,-0.053017351776361465,-0.006836672313511372,-1.002055287361145,0.0016627663280814886,-0.11011213809251785,0.0017578108236193657
2024-05-13 17:22:17.493154,0.3571925066499124,-3.595408164000127,173.53678824267004,-0.06388558447360992,-0.0023660280276089907,-0.9978582859039307,2.4083215976133943e-05,-0.10912775248289108,0.002301480621099472
2024-05-13 17:22:17.509080,0.35683739017392463,-3.717817106757803,173.55468333829546,-0.06589855998754501,-0.006346467416733503,-0.9983425140380859,-0.00046277421643026173,-0.10495657473802567,0.0014858732465654612
2024-05-13 17:22:17.536028,0.3574331374160231,-3.830560478066265,173.55809843288046,-0.06415597349405289,-0.006184292957186699,-0.9984270930290222,0.00038824998773634434,-0.10024883598089218,0.001703734160400927
2024-05-13 17:22:17.553522,0.35680996269553883,-3.94247398139057,173.56027043303652,-0.05706378445029259,-0.008288516663014889,-0.9985664486885071,-0.00021238965564407408,-0.1015065535902977,0.0025402281899005175
2024-05-13 17:22:17.578053,0.3535686377279711,-4.05426667574393,173.57912175514576,-0.057367730885744095,0.0004452823777683079,-0.9992945194244385,-0.00026309036184102297,-0.1020360067486763,0.001983541762456298
2024-05-13 17:22:17.595945,0.35013500024658517,-4.167978653254065,173.6052403985319,-0.06630324572324753,0.0006855998071841896,-0.9978485107421875,-8.206593338400126e-05,-0.10040741413831711,0.0012222658842802048
2024-05-13 17:22:17.605531,0.35188200788980106,-4.281440048199024,173.61720688995777,-0.07179615646600723,-0.004746770951896906,-0.9974510073661804,0.0015415254747495055,-0.09918064624071121,-0.0005252133123576641
2024-05-13 17:22:17.637600,0.34979327734467297,-4.39677462252386,173.64265617480524,-0.07832285761833191,-0.003265148028731346,-0.9952793717384338,-0.0003598089679144323,-0.09865373373031616,0.0018972961697727442
2024-05-13 17:22:17.655660,0.35061628845923304,-4.507184203570293,173.66344727063876,-0.07218404114246368,-0.0033735502511262894,-1.0009870529174805,0.0014711391413584352,-0.09791528433561325,0.0027731438167393208
2024-05-13 17:22:17.665662,0.3476191427544933,-4.617518652535855,173.6885823667844,-0.06668306887149811,-0.0017501629190519452,-0.9971790313720703,0.000356449862010777,-0.10101136565208435,0.002257676562294364
2024-05-13 17:22:17.698026,0.3525097182827811,-4.734051071286381,173.69593165033132,-0.06960494816303253,-0.009578614495694637,-0.9995650053024292,0.00213320623151958,-0.10443373769521713,0.0020284908823668957
2024-05-13 17:22:17.711319,0.351673767161395,-4.848859294158303,173.71587580270776,-0.07733430713415146,-0.005063661839812994,-0.9976130723953247,0.00022597977658733726,-0.101430244743824,-0.000808734679594636
2024-05-13 17:22:17.734046,0.3523599076882904,-4.964063668002085,173.73960387988438,-0.08716464042663574,-0.005353331100195646,-0.9976798295974731,0.00023722602054476738,-0.0988282635807991,-0.0010409894166514277
2024-05-13 17:22:17.757990,0.34972609603088356,-5.074451050933715,173.77531210886522,-0.08878467231988907,0.0017101450357586145,-0.9957534074783325,0.0011568749323487282,-0.09674657136201859,0.0011172876693308353
2024-05-13 17:22:17.772804,0.34833185698612823,-5.1841686484398615,173.80020131820075,-0.08740168064832687,-0.0004437125753611326,-0.9978331923484802,0.0013728291960433125,-0.09556744992733002,0.001904181786812842
2024-05-13 17:22:17.793885,0.3502728846904548,-5.290938592432323,173.8067446394256,-0.08557739108800888,-0.004928541369736195,-0.9974587559700012,0.0014705845387652516,-0.09493838250637054,0.0016359594883397222
2024-05-13 17:22:17.818033,0.35226660623701095,-5.400660031919878,173.8085751301232,-0.08462956547737122,-0.0097180912271142,-0.9976568222045898,0.0007292653317563236,-0.09848791360855103,0.0018690595170482993
2024-05-13 17:22:17.835147,0.35304892970124185,-5.511018813434359,173.82116999895268,-0.08756949007511139,-0.0035740688908845186,-0.9984551072120667,0.0014796367613598704,-0.09897321462631226,0.0016779688885435462
2024-05-13 17:22:17.853889,0.34960336606923487,-5.620841425098994,173.85008901989852,-0.09296973049640656,0.002279449487105012,-0.9945310354232788,0.0011200103908777237,-0.09648959338665009,0.004461350385099649
2024-05-13 17:22:17.877410,0.3502504731322407,-5.726701246384552,173.85385928432035,-0.09861669689416885,-0.005232284311205149,-0.997175931930542,0.0010522007942199707,-0.09226388484239578,0.001157881342805922
2024-05-13 17:22:17.887568,0.3537142594955099,-5.827444829094948,173.85033490670864,-0.09675189107656479,-0.009506291709840298,-0.9945043325424194,0.0008151287911459804,-0.09054194390773773,0.0012471547815948725
2024-05-13 17:22:17.919882,0.3552333629360295,-5.928089374062378,173.85514335988432,-0.096884585916996,-0.008001642301678658,-0.9970638155937195,0.00035414568264968693,-0.08948434889316559,0.0025213647168129683
2024-05-13 17:22:17.937953,0.35126350224394465,-6.02473270883665,173.88275098450953,-0.09418849647045135,0.0026099870447069407,-0.9986540675163269,0.0002898086095228791,-0.08836480230093002,0.0007503677043132484
2024-05-13 17:22:17.947170,0.34984538421752076,-6.12208040686908,173.9118885715088,-0.099594846367836,0.0016691674245521426,-0.9954304695129395,0.00137894949875772,-0.0874674916267395,0.002264579525217414
2024-05-13 17:22:17.974027,0.3503333158563536,-6.22107375360466,173.92778925189657,-0.1027168408036232,-0.006324870977550745,-0.996371865272522,0.0006149996188469231,-0.08770506083965302,0.0014920788817107677
2024-05-13 17:22:17.992465,0.3510284210065346,-6.32046453197257,173.94041144148275,-0.10717487335205078,-0.006746805272996426,-0.9932450652122498,-0.0005197225837036967,-0.08686383068561554,-0.0009999998146668077
2024-05-13 17:22:18.016038,0.3481575537601607,-6.420070461299336,173.9683469151881,-0.10788211971521378,-0.003213578602299094,-0.9935881495475769,-0.0010468598920851946,-0.08757670223712921,0.0004478080663830042
2024-05-13 17:22:18.033499,0.34417251190542847,-6.51943861466562,173.99829046450944,-0.10659060627222061,0.0009263412212021649,-0.9943037629127502,-0.0012695153709501028,-0.08830656111240387,0.0016080690547823906
2024-05-13 17:22:18.054357,0.3414873404271143,-6.61611994236715,174.03130759895728,-0.10899174213409424,-0.0004819476744160056,-0.9935281872749329,0.00010073870362248272,-0.08650318533182144,0.003332028863951564
2024-05-13 17:22:18.075856,0.3456063180226023,-6.7082515103078055,174.0419626940625,-0.11180587857961655,-0.00988782662898302,-0.9950839877128601,0.001480713253840804,-0.08220269531011581,0.0007958027999848127
2024-05-13 17:22:18.093189,0.3469795328913186,-6.7989717904112075,174.0535330345165,-0.11552079766988754,-0.00823297817260027,-0.9949347376823425,0.0010535019682720304,-0.08009137958288193,0.000721546181011945
2024-05-13 17:22:18.116396,0.3455255296913257,-6.890611157844799,174.06958397906604,-0.11251005530357361,-0.0032838135957717896,-0.9935184121131897,0.0008929117466323078,-0.08165062963962555,0.0011198804713785648
2024-05-13 17:22:18.141414,0.3415550286690062,-6.98164946863143,174.0962217168291,-0.11633836477994919,0.0023055397905409336,-0.9969950914382935,2.118550764862448e-05,-0.08127754926681519,0.00024051201762631536
2024-05-13 17:22:18.153725,0.3402429920181291,-7.07407388093275,174.1115486613266,-0.11919738352298737,-0.001644873758777976,-0.9934509992599487,0.00012316109496168792,-0.0809699073433876,0.00016593319014646113
2024-05-13 17:22:18.169541,0.3421353279441929,-7.164470580824222,174.11866571844175,-0.1193259209394455,-0.005440948531031609,-0.99298095703125,0.0012144765350967646,-0.0806424468755722,0.0011053935158997774
2024-05-13 17:22:18.195883,0.34374725258831584,-7.256000238344271,174.1249631528565,-0.12325090169906616,-0.00676690973341465,-0.9948554039001465,0.0017556058010086417,-0.08112283051013947,0.0021198820322752
2024-05-13 17:22:18.213374,0.34207014766238686,-7.341313569945961,174.14115070118945,-0.11808523535728455,2.3965840227901936e-05,-0.993728518486023,0.0017156475223600864,-0.07831020653247833,0.002584924455732107
2024-05-13 17:22:18.229780,0.34244932988302834,-7.427279184613388,174.15389583418067,-0.12175397574901581,-0.00298427976667881,-0.9930793046951294,0.0015373807400465012,-0.07795818150043488,0.0025413325056433678
2024-05-13 17:22:18.241830,0.34280650075185237,-7.511264898195157,174.16826655219438,-0.12116973847150803,-0.0023738788440823555,-0.9955722093582153,0.001631173538044095,-0.07650891691446304,0.0019353600218892097
2024-05-13 17:22:18.273783,0.34397886537028804,-7.594847630615896,174.18153077956256,-0.1294599324464798,-0.00528248306363821,-0.9922977685928345,0.0016050527337938547,-0.07313215732574463,0.0028821835294365883
2024-05-13 17:22:18.316023,0.34334221703444884,-7.7545920949241545,174.20647463041144,-0.13234956562519073,-0.007228566333651543,-0.9929517507553101,-0.0001007298706099391,-0.06998035311698914,0.0006004708120599389
2024-05-13 17:22:18.333080,0.34194146796564084,-7.831728836315693,174.22856346218725,-0.13187667727470398,-0.0018561106408014894,-0.992135763168335,-0.00047282149898819625,-0.06920696049928665,0.000662839156575501
2024-05-13 17:22:18.363867,0.3420182542329506,-7.907753964419813,174.24312542549774,-0.13170558214187622,-0.0053993938490748405,-0.9934541583061218,0.0006525499047711492,-0.06902873516082764,8.724389772396535e-05
2024-05-13 17:22:18.376005,0.3415969436189519,-7.985034993557568,174.2658153139205,-0.13269855082035065,-0.001729185227304697,-0.9922580718994141,0.001196460914798081,-0.06982538849115372,-0.00017164676683023572
2024-05-13 17:22:18.385581,0.3427899322070298,-8.062353588735759,174.28846422120827,-0.1346001774072647,-0.0027329816948622465,-0.993118166923523,0.0018026252510026097,-0.06818045675754547,0.0018310942687094212
2024-05-13 17:22:18.417654,0.3424153123393105,-8.135759339293179,174.31094920395594,-0.13689501583576202,-0.0018773960182443261,-0.9915683269500732,0.0008041125256568193,-0.06610403209924698,0.0013644738355651498
2024-05-13 17:22:18.435767,0.341974364931448,-8.208663070946601,174.3264537333719,-0.13885024189949036,-0.00488442974165082,-0.9908616542816162,-0.00019120820797979832,-0.06473769247531891,0.0017131073400378227
2024-05-13 17:22:18.446373,0.34355867533420004,-8.279402486406777,174.33977260225342,-0.1389186531305313,-0.005408160854130983,-0.9900686740875244,0.0006155886221677065,-0.0635872632265091,0.0016248994506895542
2024-05-13 17:22:18.478020,0.34228417804333156,-8.347421779029997,174.3626673963513,-0.13909339904785156,-0.001622127601876855,-0.9913865923881531,0.0009034028043970466,-0.061468105763196945,0.0009814329678192735
2024-05-13 17:22:18.492433,0.34261997789057286,-8.41381804795169,174.37993411457308,-0.14063811302185059,-0.003230859525501728,-0.9898815751075745,0.0014495635405182838,-0.05988261476159096,0.0015030779177322984
2024-05-13 17:22:18.514040,0.34328624149976644,-8.481813434912812,174.39810241776533,-0.14010052382946014,-0.003700009547173977,-0.9909643530845642,0.0014702167827636003,-0.061795301735401154,0.002435507485643029
2024-05-13 17:22:18.538019,0.3443082619151825,-8.549949694525568,174.41390747550471,-0.1430804431438446,-0.004232946317642927,-0.9927244186401367,0.0023816130124032497,-0.06036260724067688,0.0033569850493222475
2024-05-13 17:22:18.554234,0.344500414346442,-8.616141911545808,174.42749955195305,-0.1468295454978943,-0.004070459399372339,-0.9902697801589966,0.0009452770464122295,-0.058164313435554504,0.004147990606725216
2024-05-13 17:22:18.573813,0.3455947653979514,-8.679490208550384,174.44214347753356,-0.14614863693714142,-0.00551368435844779,-0.9915930032730103,0.0018215893069282174,-0.057325731962919235,0.0019826930947601795
2024-05-13 17:22:18.598024,0.34509549457787936,-8.744291628300878,174.45831736548814,-0.1480247676372528,-0.003413529135286808,-0.9899844527244568,0.001355122309178114,-0.05778986215591431,0.002191626001149416
2024-05-13 17:22:18.607614,0.34498020845520894,-8.805165689278619,174.48171759358462,-0.14876751601696014,-0.0016518894117325544,-0.9911282062530518,0.001455912133678794,-0.05477749928832054,0.00242751557379961
2024-05-13 17:22:18.634020,0.3434513399786103,-8.862843221724791,174.4952960096546,-0.14880821108818054,-0.0033742105588316917,-0.988944947719574,0.0001525010884506628,-0.05183190479874611,0.0011407939018681645
2024-05-13 17:22:18.657725,0.3437463721342432,-8.919992268283934,174.50095140628736,-0.14966489374637604,-0.006061678286641836,-0.9892110824584961,8.317315950989723e-05,-0.05205253139138222,0.00019792839884757996
2024-05-13 17:22:18.667322,0.34358079340772324,-8.98032247544901,174.51319110528004,-0.1513536274433136,-0.003034386318176985,-0.9895264506340027,0.0011654923437163234,-0.05334876850247383,0.0013605485437437892
2024-05-13 17:22:18.679121,0.3409645908317704,-9.036096092664042,174.53432371057204,-0.15365365147590637,0.0002768833364825696,-0.9906700253486633,0.0009097845759242773,-0.050277817994356155,0.0014441824750974774
2024-05-13 17:22:18.718155,0.34312506504361,-9.08469118106139,174.5459760132961,-0.15253035724163055,-0.0028910490218549967,-0.9896289110183716,0.001963213086128235,-0.04526856169104576,0.00154734100215137
2024-05-13 17:22:18.726591,0.344528989083165,-9.135467661124911,174.55302476851955,-0.15406420826911926,-0.0064323414117097855,-0.988799512386322,0.0016266492893919349,-0.04577809199690819,0.0020429170690476894
2024-05-13 17:22:18.754021,0.3447769302861217,-9.185422810940738,174.56429458065006,-0.15384972095489502,-0.004471793305128813,-0.9886629581451416,0.001848436426371336,-0.0450238436460495,0.0032977850642055273
2024-05-13 17:22:18.773415,0.34384487626867943,-9.231893710506212,174.57484039272856,-0.154530867934227,-0.0017056511715054512,-0.989213228225708,0.0017995049711316824,-0.04195985198020935,0.0014758954057469964
2024-05-13 17:22:18.795884,0.34458680556727206,-9.277558647749625,174.56873420361057,-0.15573935210704803,-0.004445361904799938,-0.989273726940155,0.0011848933063447475,-0.04096141457557678,-6.887404015287757e-05
2024-05-13 17:22:18.820058,0.3441521013791978,-9.323376410475717,174.5702095244713,-0.15680736303329468,-0.0049942838959395885,-0.9888272881507874,0.0001935344625962898,-0.04164941608905792,0.0008932094788178802
2024-05-13 17:22:18.835646,0.3430577770081148,-9.368736550527418,174.58356937448784,-0.1592039167881012,-0.0037100554909557104,-0.9879052639007568,0.0002638282021507621,-0.04041936993598938,0.0007134999614208937
2024-05-13 17:22:18.855873,0.34162786623320207,-9.41038362899157,174.59702484715277,-0.1582486778497696,-0.002389421919360757,-0.9881606698036194,0.000143714394653216,-0.038205914199352264,0.001040712813846767
2024-05-13 17:22:18.873406,0.33950893344533783,-9.451412575335837,174.61373148986263,-0.1604016274213791,-0.001668139360845089,-0.9874991178512573,-0.0004273031954653561,-0.037334077060222626,0.0012095950078219175
2024-05-13 17:22:18.897801,0.33971586683284805,-9.491252214990874,174.62446854723788,-0.1604868620634079,-0.004650387912988663,-0.9883178472518921,-0.00015619021723978221,-0.036144278943538666,0.0010687194298952818
2024-05-13 17:22:18.915865,0.3404434153815867,-9.529376623390593,174.63639405752872,-0.16159634292125702,-0.004832343198359013,-0.9887033700942993,0.0004873836296610534,-0.03507454693317413,0.0006927879294380546
2024-05-13 17:22:18.933938,0.3407480258103133,-9.56478432404794,174.65487654942277,-0.16158004105091095,-0.0038859229534864426,-0.9891011714935303,0.001863606390543282,-0.032512012869119644,0.001814516494050622
2024-05-13 17:22:18.949049,0.33949476613889534,-9.596370533864663,174.67773036238563,-0.16157422959804535,-0.0025383085012435913,-0.9883059859275818,0.0012585489312186837,-0.030126089230179787,0.0022129323333501816
2024-05-13 17:22:18.960423,0.34000630995513226,-9.627872220090408,174.69945036394628,-0.16098663210868835,-0.0031579029746353626,-0.987268328666687,0.0017080166144296527,-0.02988395094871521,0.0034506891388446093
2024-05-13 17:22:18.993230,0.3424342554420867,-9.658667835510704,174.7159794217377,-0.16256223618984222,-0.005331555847078562,-0.9878168106079102,0.001580707379616797,-0.02880070172250271,0.0028033070266246796
2024-05-13 17:22:19.008115,0.34291204851887025,-9.689412224512223,174.7334100644996,-0.16391274333000183,-0.005063439719378948,-0.9866358041763306,0.0007322944002225995,-0.027326732873916626,0.0013902588980272412
2024-05-13 17:22:19.041881,0.3433258085721849,-9.716458919851828,174.74868236748372,-0.16305744647979736,-0.0038617332465946674,-0.9884787797927856,0.00042455943184904754,-0.025652701035141945,0.000963226892054081
2024-05-13 17:22:19.053509,0.3437176373149615,-9.741901374510125,174.77507421843666,-0.16358651220798492,-0.0030798425432294607,-0.9869981408119202,0.0011243043700233102,-0.024290181696414948,0.0008241206523962319
2024-05-13 17:22:19.077988,0.34464512897948163,-9.767448843326912,174.79697180491573,-0.1651124805212021,-0.0040324232541024685,-0.9889241456985474,0.0015130701940506697,-0.023987239226698875,-0.00040220364462584257
2024-05-13 17:22:19.095884,0.34337522072196175,-9.790576717630222,174.81751701393912,-0.1656733900308609,-0.0028752067591995,-0.9868156909942627,0.000714513473212719,-0.022004975005984306,3.625132376328111e-05
2024-05-13 17:22:19.106570,0.3429480937749979,-9.812367582403501,174.83647761907508,-0.16697566211223602,-0.0038850950077176094,-0.9883611798286438,0.0008631031378172338,-0.020594950765371323,0.0007699921261519194
2024-05-13 17:22:19.137641,0.3415276011906204,-9.833720461296252,174.8579244130689,-0.1680610179901123,-0.003234598785638809,-0.9858253598213196,-0.00010576970817055553,-0.019342513754963875,0.0013827468501403928
2024-05-13 17:22:19.155610,0.3398418251260966,-9.851800825802924,174.87769098052692,-0.16770993173122406,-0.0030069989152252674,-0.9873672127723694,-0.00020228199718985707,-0.01818462274968624,0.00014847147394903004
2024-05-13 17:22:19.165277,0.33965877072025497,-9.86654037403181,174.89629641582604,-0.16674363613128662,-0.004381862934678793,-0.9862674474716187,-0.0003072770487051457,-0.015458336099982262,0.0013623425038531423
2024-05-13 17:22:19.198017,0.33877103289113847,-9.879907908011171,174.9163498512292,-0.16575536131858826,-0.0042292652651667595,-0.9866829514503479,8.371815783903003e-05,-0.014410850591957569,0.002115856157615781
2024-05-13 17:22:19.211349,0.33771950392407385,-9.892069913602025,174.93494162614996,-0.1658267229795456,-0.0034525853116065264,-0.9871242642402649,0.0007528807618655264,-0.013128219172358513,0.001858908450230956
2024-05-13 17:22:19.233959,0.33683974354246443,-9.902916254004007,174.95297332555882,-0.16689622402191162,-0.004166743252426386,-0.986770749092102,-6.66002306388691e-05,-0.011284423060715199,0.0007609875174239278
2024-05-13 17:22:19.257382,0.3355103646143978,-9.912911382080674,174.9719749118298,-0.16805805265903473,-0.0029027319978922606,-0.986743688583374,-0.0006090366514399648,-0.010776998475193977,0.0006288470467552543
2024-05-13 17:22:19.272980,0.33416158901630544,-9.921245920415382,174.99216495101635,-0.1677936464548111,-0.003435881109908223,-0.9864467978477478,0.00011772011930588633,-0.00865151546895504,0.002672875300049782
2024-05-13 17:22:19.293992,0.33458271286731905,-9.926516265133692,175.0066176313001,-0.1680450141429901,-0.0026241960003972054,-0.9880359768867493,0.001847028499469161,-0.006527129095047712,0.0030015844386070967
2024-05-13 17:22:19.318008,0.3361567246254632,-9.930230180494886,175.01925348126463,-0.16770873963832855,-0.003026795806363225,-0.9869036674499512,0.0018414455698803067,-0.005688588600605726,0.0015717437490820885
2024-05-13 17:22:19.335144,0.337922061721647,-9.932908468423179,175.0285971800492,-0.16809792816638947,-0.0049101063050329685,-0.9881711602210999,0.001841402961872518,-0.0037896176800131798,0.0011745986994355917
2024-05-13 17:22:19.353588,0.3386274388360095,-9.93406533171385,175.03940253931614,-0.16859687864780426,-0.004283212125301361,-0.986851155757904,0.0014326920500025153,-0.0024080865550786257,0.001261453377082944
2024-05-13 17:22:19.377404,0.33908049915747823,-9.934888369508835,175.053377106358,-0.16837987303733826,-0.002962974365800619,-0.9867468476295471,0.0009237980702891946,-0.0018977959407493472,0.0017502737464383245
2024-05-13 17:22:19.387078,0.33915675181625904,-9.934500756273437,175.06813031496523,-0.16704079508781433,-0.0029339457396417856,-0.9873034358024597,0.0017382681835442781,-0.0019882279448211193,0.0018911852966994047
2024-05-13 17:22:19.399049,0.339281055923068,-9.935114619525093,175.0768866174812,-0.16722023487091064,-0.003485349705442786,-0.9865268468856812,0.0017719718161970377,-0.0023361830972135067,0.0019299129489809275
2024-05-13 17:22:19.438054,0.34043311673697874,-9.935024119518589,175.0821458631421,-0.16652849316596985,-0.00414433516561985,-0.9862744808197021,0.0009542368934489787,-0.0023842204827815294,0.0019312658114358783
2024-05-13 17:22:19.447023,0.3398298722950491,-9.934978869515339,175.08541069356536,-0.16731849312782288,-0.0047105299308896065,-0.9867523312568665,-0.000398069154471159,-0.0011214572004973888,0.002446741797029972
2024-05-13 17:22:19.460236,0.33863024028078625,-9.935799345989386,175.0944402036481,-0.16834212839603424,-0.0015462024603039026,-0.9870700240135193,0.0006929019000381231,-0.0019904328510165215,0.0012225923128426075
2024-05-13 17:22:19.497860,0.3382494839149845,-9.935516746912477,175.10452156286306,-0.1683565080165863,-0.003066038014367223,-0.9871914982795715,0.0008809785940684378,-0.0006693878676742315,0.0013442462077364326
2024-05-13 17:22:19.507288,0.33873373365496784,-9.935563704463021,175.1093436764171,-0.1672820746898651,-0.004629103466868401,-0.9870617389678955,0.001630475977435708,-0.0017039335798472166,0.0016818058211356401
2024-05-13 17:22:19.534013,0.33874573984686823,-9.934791893086809,175.11105122370958,-0.16696186363697052,-0.0037164471577852964,-0.9872124195098877,0.0009968408849090338,-0.0016096801264211535,0.0012505195336416364
2024-05-13 17:22:19.554681,0.3375335146713232,-9.933371213739447,175.1155318278051,-0.16800077259540558,-0.0021006050519645214,-0.9871636033058167,-2.5559376808814704e-05,-0.00045490876073017716,0.0012696243356913328
2024-05-13 17:22:19.575915,0.33644476650936733,-9.931398142842959,175.12292209248707,-0.16742460429668427,-0.0022032838314771652,-0.9865134358406067,0.0007357526337727904,-0.00043301013647578657,0.0022486818488687277
2024-05-13 17:22:19.593273,0.336377051587049,-9.92767142087707,175.1277442060411,-0.16868112981319427,-0.004198847804218531,-0.988745927810669,0.0003405038733035326,0.0019041551277041435,0.002326305489987135
2024-05-13 17:22:19.616655,0.3366410544067258,-9.921887104423716,175.1320062440832,-0.16859279572963715,-0.004866583738476038,-0.9876325130462646,0.0012188884429633617,0.004000485874712467,0.002533102873712778
2024-05-13 17:22:19.635867,0.33639855601076396,-9.912234339579197,175.1347383197512,-0.16729891300201416,-0.004520299844443798,-0.9887440800666809,0.0011627099011093378,0.007338135968893766,0.0020079626701772213
2024-05-13 17:22:19.653685,0.33606176898774415,-9.902823192676564,175.1388637540099,-0.1670912206172943,-0.0036525919567793608,-0.9876225590705872,0.0009148616809397936,0.0068673002533614635,0.001599854789674282
2024-05-13 17:22:19.669617,0.3354928088937968,-9.890709852183546,175.14666383004203,-0.16693569719791412,-0.002457571215927601,-0.988308846950531,0.0006928235525265336,0.008604388684034348,0.0010723334271460772
2024-05-13 17:22:19.695870,0.3362379932044158,-9.877939105982916,175.151403981326,-0.1676935851573944,-0.004379688762128353,-0.9884032607078552,0.000473130086902529,0.009651558473706245,0.0012397164246067405
2024-05-13 17:22:19.719934,0.3366829693566715,-9.862482387891177,175.15852103844117,-0.16725242137908936,-0.004743335768580437,-0.9873883724212646,0.0008420480298809707,0.011268571019172668,0.0015604046639055014
2024-05-13 17:22:19.729598,0.3358021951188572,-9.84734412736949,175.16873900143952,-0.1665329486131668,-0.0025218790397047997,-0.9882400035858154,0.001311130472458899,0.01127480249851942,0.0014994286466389894
2024-05-13 17:22:19.741785,0.33531650463584584,-9.828884687363884,175.17682594541682,-0.1661505252122879,-0.0019078577170148492,-0.988231360912323,0.0011655892012640834,0.013741116970777512,0.0015643385704606771
2024-05-13 17:22:19.773662,0.3356563599079069,-9.809507440688558,175.17957168146316,-0.16628150641918182,-0.004096396267414093,-0.9880703091621399,0.0005135725950822234,0.014815522357821465,0.0015014340169727802
2024-05-13 17:22:19.789238,0.335926312462681,-9.788428623136252,175.18056888908197,-0.16617637872695923,-0.004700791090726852,-0.9871649146080017,0.0016862645279616117,0.016051139682531357,0.0017890118760988116
2024-05-13 17:22:19.816014,0.3377897534869045,-9.767497508424748,175.18472164409735,-0.16824565827846527,-0.004683524835854769,-0.9861603379249573,0.00225519179366529,0.01813703030347824,0.002170792780816555
2024-05-13 17:22:19.833068,0.33793817669922,-9.745155959649637,175.1965515317398,-0.16892606019973755,-0.0030257347971200943,-0.985989511013031,0.0023256021086126566,0.02016393467783928,0.0022439362946897745
2024-05-13 17:22:19.858031,0.33880897245754377,-9.718193787901011,175.20585424938938,-0.16835805773735046,-0.003874406451359391,-0.9847433567047119,0.00206062407232821,0.022654244676232338,0.0028105718083679676
2024-05-13 17:22:19.869479,0.3395025835038438,-9.68852686124106,175.2124112309926,-0.1687336564064026,-0.005980294197797775,-0.9853484630584717,0.0014321518829092383,0.025890741497278214,0.004115579649806023
2024-05-13 17:22:19.893893,0.3382268855937853,-9.653979764419136,175.22435040166175,-0.16590602695941925,-0.0046937414444983006,-0.9868089556694031,0.0005517852259799838,0.027908658608794212,0.003737518098205328
2024-05-13 17:22:19.918022,0.3355252789727808,-9.615749488087282,175.23740972335483,-0.16269223392009735,-0.00479442672803998,-0.9864997863769531,-0.0007357364520430565,0.03107941336929798,0.003821618389338255
2024-05-13 17:22:19.929230,0.33070095094335683,-9.575114985167584,175.2597307815624,-0.15891052782535553,-0.0020130486227571964,-0.9874461889266968,-0.0013371751410886645,0.03232628479599953,0.003586901817470789
2024-05-13 17:22:19.954011,0.32801569942376335,-9.53327666140667,175.27650572616398,-0.15927858650684357,-0.001916895736940205,-0.9875636696815491,-0.0009849168127402663,0.03359174728393555,0.0026810721028596163
2024-05-13 17:22:19.974570,0.3243424450324716,-9.489787993187553,175.28814436850968,-0.15952731668949127,-0.002598557388409972,-0.9881290793418884,-0.001274180132895708,0.03558051958680153,0.0015712938038632274
2024-05-13 17:22:19.995740,0.32281885928030923,-9.444847909769809,175.29844429377806,-0.16068999469280243,-0.0037976535968482494,-0.9876483678817749,-0.0003566289960872382,0.037707746028900146,0.0013514059828594327
2024-05-13 17:22:20.013881,0.3228858004702606,-9.395539920377841,175.31315652125028,-0.1626005470752716,-0.0031908811070024967,-0.9875237941741943,0.0011663675541058183,0.042266521602869034,0.0019518571207299829
2024-05-13 17:22:20.024519,0.32216807031845396,-9.342477034489658,175.32438535224577,-0.1599290668964386,-0.004140074364840984,-0.9859995245933533,-0.0002511507773306221,0.04484403505921364,0.0016763824969530106
2024-05-13 17:22:20.055915,0.3209939714722993,-9.286991992767058,175.33831893815258,-0.15754581987857819,-0.0024278759956359863,-0.988290548324585,0.0011248597875237465,0.045913346111774445,0.002176119014620781
2024-05-13 17:22:20.071803,0.3221928831150481,-9.233027521908435,175.34830467471915,-0.1535222977399826,-0.006527066230773926,-0.9880080223083496,0.0006617959006689489,0.04523376375436783,0.00222000852227211
2024-05-13 17:22:20.085357,0.3222346113020087,-9.175657347974912,175.36245682667942,-0.15255963802337646,-0.002667810767889023,-0.989551842212677,0.002330915303900838,0.046385448426008224,0.0014064578572288156
2024-05-13 17:22:20.115892,0.32239776210972204,-9.117339485294051,175.36916407244436,-0.15494084358215332,-0.005930515471845865,-0.9890933036804199,-9.57056472543627e-05,0.04881704971194267,-0.00036625872598960996
2024-05-13 17:22:20.131167,0.3213742742708515,-9.057594966850303,175.3810895827352,-0.15546968579292297,-0.0034722888376563787,-0.9870637059211731,0.00014094807556830347,0.05041499063372612,0.0004611629992723465
2024-05-13 17:22:20.157962,0.3201741886893391,-8.997939240865765,175.39495486675034,-0.15482431650161743,-0.002578285988420248,-0.9890025854110718,0.00086653494508937,0.051446400582790375,0.00022750644711777568
2024-05-13 17:22:20.175905,0.3177061692018638,-8.934435557057572,175.4113883018934,-0.15031753480434418,-0.0008390836301259696,-0.9889410138130188,-0.00039417928201146424,0.052529171109199524,0.0011771301506087184
2024-05-13 17:22:20.181303,0.3164628613295099,-8.871862486523792,175.42140135921662,-0.1499631106853485,-0.0021998004522174597,-0.9898152947425842,-0.00030406098812818527,0.05263248458504677,5.661787872668356e-05
2024-05-13 17:22:20.218150,0.3138445509998678,-8.8086320102824,175.42851841633177,-0.1451958566904068,-0.0020303428173065186,-0.9898946285247803,-0.0012342213885858655,0.052758362144231796,-0.00042492878856137395
2024-05-13 17:22:20.228157,0.31365082442344805,-8.747856987047626,175.43488415263823,-0.1494775265455246,-0.004606577567756176,-0.9890573024749756,0.0003904675832018256,0.05310310795903206,0.0014337613247334957
2024-05-13 17:22:20.254012,0.31257514967045036,-8.684010940007285,175.44394098347766,-0.14830365777015686,-0.0047334711998701096,-0.9884285926818848,0.00028077969909645617,0.05519554764032364,0.0007397752488031983
2024-05-13 17:22:20.273439,0.31131388587109876,-8.614441194442474,175.45291585204706,-0.15018947422504425,-0.0032928474247455597,-0.9896968007087708,-0.00030271729337982833,0.05979277938604355,0.0003163530782330781
2024-05-13 17:22:20.296015,0.3103430651940314,-8.538641462580966,175.4597870223521,-0.1421893984079361,-0.003145078895613551,-0.9906830191612244,-0.00034634588519111276,0.06157078221440315,0.0026986408047378063
2024-05-13 17:22:20.313122,0.30705248815924546,-8.464407551586682,175.47225894777654,-0.14169710874557495,0.00017713008855935186,-0.992856502532959,0.00011400056246202439,0.06231198087334633,0.0032605910673737526
2024-05-13 17:22:20.338362,0.3071898923554391,-8.38977236697866,175.48066008045566,-0.14045503735542297,-0.0021270003635436296,-0.9898759722709656,0.001040563452988863,0.06284131109714508,0.0014499927638098598
2024-05-13 17:22:20.354501,0.3073998406311377,-8.31712989006099,175.490878043454,-0.14381012320518494,-0.0028297866228967905,-0.9913265705108643,0.00054215791169554,0.06280695647001266,0.0029288865625858307
2024-05-13 17:22:20.366874,0.30630973176743304,-8.244565960318774,175.49462098711916,-0.14024749398231506,-0.007134726271033287,-0.9911177754402161,-0.0013777167769148946,0.062454722821712494,0.0007108672871254385
2024-05-13 17:22:20.397589,0.30355006853848343,-8.170939936160622,175.5065191766533,-0.14040502905845642,-0.0036821505054831505,-0.9916181564331055,-0.0008810802246443927,0.06361760199069977,0.0023546789307147264
2024-05-13 17:22:20.407665,0.3004244565804092,-8.089078411410727,175.51646393208486,-0.13441741466522217,0.0002822118694894016,-0.9922518134117126,-0.0012349092867225409,0.06845241785049438,-0.0015274342149496078
2024-05-13 17:22:20.433590,0.3004598348258758,-8.005930249775929,175.51919600775287,-0.13404831290245056,-0.003173895413056016,-0.9906287789344788,6.61607482470572e-05,0.07041662186384201,-0.0010710725327953696
2024-05-13 17:22:20.457884,0.3017963907886562,-7.924119097671163,175.5250016685474,-0.13420052826404572,-0.003846304025501013,-0.991181492805481,0.0021435189992189407,0.06978622078895569,-0.0006153028225526214
2024-05-13 17:22:20.461243,0.30392895727443403,-7.844911955187464,175.5338126125767,-0.1340627670288086,-0.004453325644135475,-0.9909409880638123,0.0016626545693725348,0.06873783469200134,0.0007167570875026286
2024-05-13 17:22:20.493408,0.30394579262352106,-7.763028232322767,175.54624355686613,-0.13195110857486725,-0.002285233000293374,-0.9936169981956482,0.0016393386758863926,0.0700300931930542,0.001890150597319007
2024-05-13 17:22:20.508716,0.3067000664063287,-7.6778036931802855,175.5508744251234,-0.12851347029209137,-0.0049285502173006535,-0.9914005398750305,0.002634884789586067,0.07209033519029617,0.0016649214085191488
2024-05-13 17:22:20.536012,0.3092628280881115,-7.59053265860774,175.55112031193352,-0.12708552181720734,-0.004784262273460627,-0.9930993914604187,0.0026270360685884953,0.07363883405923843,0.001235207193531096
2024-05-13 17:22:20.553545,0.3082092447282106,-7.502658859840941,175.55240438749746,-0.12700580060482025,-0.003445527283474803,-0.9939743280410767,0.0004275753744877875,0.07478027790784836,0.0016152533935382962
2024-05-13 17:22:20.577966,0.30669955947822625,-7.414313778021412,175.55758167088834,-0.1294860988855362,-0.0022976768668740988,-0.9923890829086304,0.00016372273967135698,0.07687238603830338,0.00209293351508677
2024-05-13 17:22:20.595939,0.3060867367632027,-7.325031252738297,175.5694115585308,-0.12714077532291412,-0.0008839896181598306,-0.9927664399147034,0.0007264536106958985,0.07731691747903824,0.0013352050445973873
2024-05-13 17:22:20.616532,0.3093796083146629,-7.231944312087486,175.56792257729174,-0.12112459540367126,-0.005222605541348457,-0.9926545023918152,0.0017652394017204642,0.07890411466360092,0.0020187851041555405
2024-05-13 17:22:20.638008,0.31190240271763053,-7.139301333732726,175.56812748296684,-0.12038502097129822,-0.006282547023147345,-0.9952213168144226,0.002529074205085635,0.07975751161575317,0.0028444721829146147
2024-05-13 17:22:20.652796,0.3147842356192735,-7.042789053213153,175.57069563409476,-0.11708731204271317,-0.0048817419447004795,-0.993363618850708,0.0017766812816262245,0.08101963251829147,0.0012448962079361081
2024-05-13 17:22:20.674011,0.31675962771286165,-6.945311154699669,175.58427405016474,-0.11840081214904785,-0.001599036855623126,-0.9941577911376953,0.00369367771781981,0.08259043842554092,0.0025408430956304073
2024-05-13 17:22:20.698033,0.31742188925808845,-6.849913902562101,175.59887699461024,-0.11857391148805618,-0.0004928117850795388,-0.9931768774986267,0.0026175491511821747,0.08177508413791656,0.0021507060155272484
2024-05-13 17:22:20.710280,0.3165546153160555,-6.756246395831839,175.61652620342554,-0.11374351382255554,-0.0009600227349437773,-0.9930741786956787,0.0008807716658338904,0.0811396986246109,0.0007535365293733776
2024-05-13 17:22:20.734015,0.3158949417721939,-6.660161855909038,175.62636167583037,-0.10989601165056229,-0.0046491483226418495,-0.9949770569801331,0.00034112358116544783,0.08189830929040909,0.0015291271265596151
2024-05-13 17:22:20.758008,0.31638127258543997,-6.560529459599239,175.63614250672182,-0.10802889615297318,-0.004977720323950052,-0.9949820637702942,0.0007166307186707854,0.08367064595222473,0.0006736390641890466
2024-05-13 17:22:20.772667,0.316186158626845,-6.461983917141119,175.64951601711672,-0.1117343157529831,-0.00425622658804059,-0.9947518706321716,0.0007009225664660335,0.08615083992481232,0.0026180525310337543
2024-05-13 17:22:20.793882,0.3127847777810316,-6.360628178726361,175.66224748972962,-0.11039111763238907,-0.0014449984300881624,-0.9956529140472412,-0.000569225347135216,0.0875343307852745,0.003180079162120819
2024-05-13 17:22:20.818009,0.3128312017230465,-6.258441291666977,175.67563466050285,-0.10738713294267654,-0.0038492523599416018,-0.9931827783584595,0.0014835572801530361,0.08883459120988846,0.0036670812405645847
2024-05-13 17:22:20.835161,0.31495509707022956,-6.151769531643833,175.68062069859695,-0.10075643658638,-0.003553252900019288,-0.994831383228302,0.0024660236667841673,0.08911195397377014,0.0016805490013211966
2024-05-13 17:22:20.853909,0.31633404823063166,-6.044763092351359,175.6769597172018,-0.09530621767044067,-0.005683129653334618,-0.9960525631904602,0.0007574436604045331,0.0894022285938263,0.001196828205138445
2024-05-13 17:22:20.875464,0.31381816405811336,-5.940274004654857,175.67552537747613,-0.09820019453763962,-0.0018273163586854935,-0.9946256875991821,-0.0006882401066832244,0.08944126218557358,-0.0015130704268813133
2024-05-13 17:22:20.880469,0.31312596707441487,-5.839853148382745,175.67597616996133,-0.10284639894962311,-0.00028042818303219974,-0.9940237998962402,0.00040708674350753427,0.08835119009017944,-0.0011370102874934673
2024-05-13 17:22:20.914005,0.315213683763338,-5.7382528038183365,175.6717687734326,-0.09885868430137634,-0.0035956110805273056,-0.9942803382873535,0.0013341892044991255,0.08837281167507172,0.0006832600338384509
2024-05-13 17:22:20.930148,0.3158393397634818,-5.633703525079774,175.67017050916684,-0.09790664911270142,-0.0036507388576865196,-0.9977769255638123,0.0007191861514002085,0.0903698205947876,0.0020655938424170017
2024-05-13 17:22:20.955937,0.3177858903160825,-5.5252409748336175,175.66551232015289,-0.09001065790653229,-0.0057731810957193375,-0.9986387491226196,0.0016924352385103703,0.09021591395139694,0.0020883576944470406
2024-05-13 17:22:20.974019,0.3202158101545939,-5.416046313685801,175.6615644708126,-0.08550665527582169,-0.004437508061528206,-0.9976165294647217,0.0023289250675588846,0.09154070913791656,0.0012868676567450166
2024-05-13 17:22:20.991543,0.31868611458477547,-5.309226850821856,175.67250643386296,-0.08896079659461975,-0.001818294171243906,-0.9986058473587036,0.0012622755020856857,0.09215071052312851,0.0017334261210635304
2024-05-13 17:22:21.015869,0.31750820043763917,-5.198779276848165,175.6741183585071,-0.0927070751786232,-0.003072405466809869,-0.997100293636322,-0.0008937103557400405,0.09673034399747849,-0.0038092508912086487
2024-05-13 17:22:21.034077,0.31638164611141023,-5.082704907658853,175.6733670376984,-0.08894933015108109,-0.006015017628669739,-0.9977738857269287,-0.0010110305156558752,0.10017157346010208,-0.0034468164667487144
2024-05-13 17:22:21.054250,0.315952278008625,-4.964413288310225,175.67700069833685,-0.08356299996376038,-0.005383224226534367,-0.9971969127655029,-0.0011295523727312684,0.10146386176347733,-0.0009642036748118699
2024-05-13 17:22:21.075995,0.3145526495177277,-4.849300695133415,175.68827051046736,-0.07621107250452042,-0.002687606727704406,-0.9971418976783752,-0.000682646466884762,0.09790443629026413,3.649053178378381e-05
2024-05-13 17:22:21.094085,0.31541890960355573,-4.734013505245946,175.69836553006064,-0.07127103954553604,-0.00016214384231716394,-0.9972718954086304,0.0019660405814647675,0.09616739302873611,-0.002215595217421651
2024-05-13 17:22:21.116530,0.3187948106421139,-4.625515523393471,175.70311934172298,-0.07514171302318573,-0.004521822091192007,-0.9975292086601257,0.0031495823059231043,0.09369509667158127,-0.0012896610423922539
2024-05-13 17:22:21.120721,0.31999169457245286,-4.5168924637018195,175.71198492726566,-0.0784488096833229,-0.003911586944013834,-0.9986962080001831,0.0019177163485437632,0.09467051178216934,0.0003294862690381706
2024-05-13 17:22:21.153641,0.31868363330511607,-4.40347759942058,175.71941617308264,-0.08026990294456482,-0.004669512156397104,-0.9955604076385498,5.7436845963820815e-06,0.10039877891540527,0.002082410268485546
2024-05-13 17:22:21.168167,0.3166337761413189,-4.283013126142243,175.7262053811176,-0.07295869290828705,-0.0035969733726233244,-0.9976977705955505,-0.00014097751409281045,0.10304615646600723,0.003287463914602995
2024-05-13 17:22:21.180418,0.3191652950437342,-4.162748435897128,175.72784462651842,-0.07049371302127838,-0.0011996221728622913,-0.9958809018135071,0.0033980587031692266,0.10345224291086197,0.0016762146260589361
2024-05-13 17:22:21.213142,0.32260931121100733,-4.04104812526584,175.7254813810656,-0.06021035090088844,-0.0027807760052382946,-0.9988164305686951,0.003794003278017044,0.10178373008966446,0.000571649638004601
2024-05-13 17:22:21.227404,0.3253713489979106,-3.9205529161362374,175.72533111690385,-0.06367623060941696,-0.003111793426796794,-0.9976494908332825,0.003669801400974393,0.10261161625385284,0.0012793599162250757
2024-05-13 17:22:21.241803,0.32920367209166956,-3.80651138199865,175.72781730576173,-0.0668407529592514,-0.003869524458423257,-0.9983379244804382,0.004109538160264492,0.10017315298318863,0.0012391421478241682
2024-05-13 17:22:21.273273,0.3307880358552745,-3.6917377369594018,175.7275987397083,-0.06232936307787895,-0.0014339599292725325,-0.9985559582710266,0.0028654634952545166,0.09890838712453842,-0.0015063862083479762
2024-05-13 17:22:21.288831,0.3300979466252652,-3.5764443572129982,175.72669715473785,-0.06082417815923691,-0.0012145747896283865,-1.0006574392318726,0.0007429260876961052,0.09954331070184708,-0.0009010012145154178
2024-05-13 17:22:21.316004,0.33104566205303093,-3.451696501551416,175.72270832426256,-0.05545252561569214,-0.004495569039136171,-0.9986518025398254,0.0012771772453561425,0.10580886900424957,0.0018274616450071335
2024-05-13 17:22:21.333873,0.3332185159827412,-3.327128151798958,175.7163699087128,-0.05756929889321327,-0.01021882425993681,-1.0007896423339844,0.0002731068234425038,0.10766083747148514,0.0005139224231243134
2024-05-13 17:22:21.357778,0.3338688246969205,-3.200322488206498,175.7146350406636,-0.04880048707127571,-0.0076747676357626915,-1.000765323638916,0.001139835687354207,0.10686228424310684,5.2804622100666165e-05
2024-05-13 17:22:21.368861,0.3348203821060943,-3.077212810728661,175.72515353198543,-0.050600260496139526,-0.001981898909434676,-0.999764621257782,0.0025241572875529528,0.10688808560371399,0.0010733669623732567
2024-05-13 17:22:21.393926,0.3342769551802552,-2.9516613406225445,175.73769375930158,-0.045645326375961304,0.0006133887218311429,-1.000381588935852,0.001746940310113132,0.10786973685026169,2.6738736778497696e-05
2024-05-13 17:22:21.418044,0.33494228497452316,-2.8297808837518983,175.7336093061779,-0.04631602019071579,-0.005628078244626522,-0.9984523057937622,0.0007985254051163793,0.10547374933958054,-0.0002745691454038024
2024-05-13 17:22:21.428990,0.3343867984959307,-2.7083956155960776,175.73227058910058,-0.04144708439707756,-0.0057368152774870396,-0.9987739324569702,-0.0005095560336485505,0.1034027561545372,0.0011072468478232622
2024-05-13 17:22:21.453834,0.3366526603922296,-2.5883234513081925,175.73742055173477,-0.04727102443575859,-0.001431971788406372,-0.9979576468467712,0.002995816059410572,0.106117844581604,0.00039367465069517493
2024-05-13 17:22:21.477824,0.3371209552371986,-2.4574203145439593,175.7494143639173,-0.04110494628548622,-6.099638994783163e-06,-1.0025697946548462,0.002534009050577879,0.11128408461809158,-0.0004042128275614232
2024-05-13 17:22:21.491372,0.3392484791223782,-2.325607481959645,175.7484171562985,-0.03620356693863869,-0.007558946032077074,-0.9981465339660645,0.0010161498794332147,0.11241070926189423,0.003784826025366783
2024-05-13 17:22:21.519187,0.3400024146128713,-2.1976744102673096,175.7474609298147,-0.03148973360657692,-0.0072224438190460205,-1.0012472867965698,0.0005559421260841191,0.10974803566932678,0.0026691134553402662
2024-05-13 17:22:21.537285,0.33813550513320995,-2.0717803634856344,175.74776145813817,-0.029267147183418274,-0.0012538665905594826,-0.9994948506355286,0.0007926139514893293,0.10683629661798477,-0.0008159047574736178
2024-05-13 17:22:21.555032,0.33366546648655393,-1.9436771773942836,175.7492367789989,-0.027148902416229248,0.002795774256810546,-0.999855101108551,0.00011431629536673427,0.10919877886772156,-0.002335300901904702
2024-05-13 17:22:21.573793,0.33232992437997844,-1.8195909963085464,175.74802100532665,-0.030406584963202477,-0.003827097360044718,-0.9998169541358948,-0.0011147861368954182,0.10695524513721466,-0.0005366920959204435
2024-05-13 17:22:21.587028,0.33330546749252665,-1.701213145821647,175.7443600239315,-0.032028526067733765,-0.006558528169989586,-1.000150203704834,4.141540557611734e-05,0.10550788789987564,-0.0002246491494588554
2024-05-13 17:22:21.615590,0.3324614322019276,-1.5735830570520253,175.74645006181754,-0.02891591005027294,-0.002935726661235094,-1.0019712448120117,0.0008228265796788037,0.1104850023984909,0.0009103309130296111
2024-05-13 17:22:21.633825,0.33184559459871577,-1.440400558095712,175.74440100506652,-0.018578294664621353,-0.001967795193195343,-1.001379132270813,0.0013580432860180736,0.11247717589139938,0.0005110151832923293
2024-05-13 17:22:21.648863,0.33209703093753684,-1.3125992877100168,175.73982477832263,-0.014085483737289906,-0.005495651625096798,-0.9997163414955139,0.0001971229212358594,0.10772142559289932,0.0041547128930687904
2024-05-13 17:22:21.675999,0.33278981489061715,-1.1874788665735514,175.73164221169694,-0.013967982493340969,-0.0065921335481107235,-1.001036286354065,0.00047782447654753923,0.10720374435186386,0.000965619517955929
2024-05-13 17:22:21.693482,0.331378393651231,-1.0606219765623162,175.72277662615426,-0.017512664198875427,-0.005563604179769754,-1.0004591941833496,-0.0011804861715063453,0.11075856536626816,-0.002651400864124298
2024-05-13 17:22:21.717999,0.33072803157619884,-0.9321599920961279,175.72283126766763,-0.017337672412395477,-0.0028756747487932444,-1.0007579326629639,0.0004970370791852474,0.11142180114984512,-0.001452840049751103
2024-05-13 17:22:21.735777,0.3312674564380712,-0.8061068232511327,175.7236372299897,-0.01115163043141365,-0.001840092591010034,-0.9989436268806458,0.001103671034798026,0.10852428525686264,0.0008696997538208961
2024-05-13 17:22:21.743640,0.33179583560339515,-0.6765613466669983,175.72583655090244,-0.005348508246243,-0.0009137458982877433,-1.001283884048462,0.0022895061410963535,0.11028360575437546,0.00134316086769104
2024-05-13 17:22:21.777903,0.3359329825692924,-0.5446755697967824,175.72218922988566,-0.006034225225448608,-0.004669928923249245,-1.0019807815551758,0.004172229673713446,0.11262481659650803,0.0009251338196918368
2024-05-13 17:22:21.795057,0.3381518869150474,-0.41357200966909174,175.71796817297857,-0.0029371094424277544,-0.004302590154111385,-1.0012967586517334,0.0028994614258408546,0.11164490878582001,-0.001395068014971912
2024-05-13 17:22:21.805089,0.3373079049853012,-0.2876513358218243,175.72070024864658,-9.15125128813088e-05,-0.004533369094133377,-0.9993727803230286,0.0002001362736336887,0.10881968587636948,-0.0009213169105350971
2024-05-13 17:22:21.837245,0.33547503972978415,-0.15996972714873642,175.73068598521314,-0.0019483177457004786,-0.002490944229066372,-1.0007339715957642,0.0005438668886199594,0.1107420027256012,0.0002992715162690729
2024-05-13 17:22:21.855061,0.33684366556515194,-0.02957186430052556,175.73064500407813,0.003104180796071887,-0.003498384729027748,-0.9990134835243225,0.0016489881090819836,0.11167826503515244,0.0007556197233498096
2024-05-13 17:22:21.867472,0.33929172809364616,0.09895078478529284,175.72792658878845,0.007101550232619047,-0.004256952553987503,-1.0013741254806519,0.0025681876577436924,0.10997208207845688,0.00024794830824248493
2024-05-13 17:22:21.897964,0.3405975482051615,0.22558183165677473,175.72688840003462,0.011868908070027828,-0.002430556807667017,-1.0014513731002808,0.002944731619209051,0.10770779103040695,-0.00011880346573889256
2024-05-13 17:22:21.915169,0.3428575137272159,0.34845936274411066,175.72813149446355,0.010296709835529327,-0.0028065876103937626,-1.0001872777938843,0.003009737003594637,0.1068049743771553,0.001390329678542912
2024-05-13 17:22:21.929235,0.34436653196653916,0.4705235143508332,175.72610975846922,0.01100174617022276,-0.0019413682166486979,-1.0021531581878662,0.002765097189694643,0.10617192089557648,0.000847172865178436
2024-05-13 17:22:21.957055,0.34720423544284146,0.592481344458171,175.71332364434298,0.009208153001964092,-0.005830157548189163,-0.9997069239616394,0.0024948706850409508,0.10808299481868744,0.0017891261959448457
2024-05-13 17:22:21.975897,0.3495119055673802,0.7211282242796256,175.69870703951915,0.012804643251001835,-0.005663714371621609,-1.0009431838989258,0.0027822009287774563,0.11040229350328445,-3.5059754736721516e-05
2024-05-13 17:22:21.991487,0.3523143375199217,0.8543369767755612,175.68861201992587,0.017315996810793877,-0.0064951456151902676,-1.0003966093063354,0.0019283430883660913,0.11383172124624252,0.0006612277938984334
2024-05-13 17:22:22.017878,0.35383517518816027,0.9840834103316821,175.68291564215806,0.022614747285842896,-0.004881097003817558,-1.0013583898544312,0.0022470394615083933,0.11089905351400375,0.001555579830892384
2024-05-13 17:22:22.035923,0.35300562736912106,1.1129557397566001,175.68260145345624,0.027445532381534576,-0.0022410876117646694,-0.9991170167922974,0.0022375700064003468,0.10917077958583832,0.00134418741799891
2024-05-13 17:22:22.045559,0.3552348570399104,1.238473379081984,175.6839128497769,0.02592533268034458,-0.0019270136253908277,-1.0007365942001343,0.0026515070348978043,0.1090339720249176,0.002022963250055909
2024-05-13 17:22:22.077892,0.35474158931578853,1.3639100166326796,175.68134469864899,0.02785305865108967,-0.004145551472902298,-1.000728726387024,0.0008470641332678497,0.10781216621398926,0.0008720880141481757
2024-05-13 17:22:22.095924,0.3536997453435236,1.4906912409545159,175.68287466102305,0.02513841725885868,-0.004101227503269911,-0.9993001818656921,-0.0006233415333554149,0.11043530702590942,-0.0010823970660567284
2024-05-13 17:22:22.105708,0.3533904391597425,1.6177949782712235,175.68223262324108,0.029175331816077232,-0.005276555195450783,-1.0009719133377075,-0.0003402104484848678,0.1097884252667427,-0.0011315041920170188
2024-05-13 17:22:22.137602,0.352502941454464,1.7467345423707838,175.68448658566717,0.03417956456542015,-0.004793189931660891,-0.9986454844474792,-0.0004238539549987763,0.11099602282047272,-0.001487083500251174
2024-05-13 17:22:22.155604,0.35155146408656945,1.8788620972654475,175.68952726527465,0.03884672373533249,-0.0033834856003522873,-1.000087022781372,0.00024979293812066317,0.11110560595989227,-0.00045675720321014524
2024-05-13 17:22:22.165207,0.35015741180479926,2.00817550750036,175.6913577559722,0.04533423110842705,-0.001733426470309496,-0.9983002543449402,0.000618905876763165,0.10902239382266998,0.000467437959741801
2024-05-13 17:22:22.198011,0.34988401747501363,2.1324819621868305,175.69157632202564,0.043501563370227814,-0.0013055806048214436,-1.0001037120819092,-0.0002968949847854674,0.10694662481546402,0.0008647218928672373
2024-05-13 17:22:22.211252,0.34972601598960423,2.2520508269102506,175.68709571793013,0.04470760002732277,-0.00295969913713634,-1.0029464960098267,-0.000449942221166566,0.10344991087913513,6.553425919264555e-06
2024-05-13 17:22:22.233945,0.34715210188956724,2.3721221374244896,175.67803888709068,0.044235870242118835,-0.00361351459287107,-0.9974448680877686,-0.0012040825095027685,0.10345595329999924,0.0008267061784863472
2024-05-13 17:22:22.258032,0.34767159647288487,2.4929778524762223,175.66973337705994,0.042996492236852646,-0.003781499108299613,-1.0003236532211304,-0.0006944285705685616,0.10608217120170593,0.001431555487215519
2024-05-13 17:22:22.272792,0.3490578047092801,2.6155430358111627,175.65376439478047,0.04235979542136192,-0.007054892834275961,-1.0009112358093262,0.001331856707111001,0.10800372809171677,0.00118108035530895
2024-05-13 17:22:22.294064,0.35036095677815093,2.74254357323838,175.63238590267832,0.050399307161569595,-0.004903790075331926,-0.9996767044067383,0.0012442761799320579,0.10863025486469269,-0.0012840692652389407
2024-05-13 17:22:22.318015,0.3519169058875916,2.867223340451673,175.62642997772207,0.055205222219228745,-0.004598033614456654,-0.9992599487304688,0.0014070083852857351,0.10626079887151718,0.0019891115371137857
2024-05-13 17:22:22.335091,0.3514919934160228,2.9908060085295336,175.62219526043665,0.06184883788228035,-0.0023785331286489964,-0.999126672744751,0.001734560588374734,0.10440459847450256,0.002503278898075223
2024-05-13 17:22:22.353955,0.3517776874223997,3.1100888590814595,175.6270583551257,0.05996637046337128,-0.0022475647274404764,-0.9987228512763977,0.0005691705737262964,0.10201070457696915,0.0028759976848959923
2024-05-13 17:22:22.377964,0.35105411425720146,3.22692500780664,175.6237798643241,0.0585397370159626,-0.002996803028509021,-1.0022081136703491,0.0007563726976513863,0.10143149644136429,2.866698196157813e-05
2024-05-13 17:22:22.386202,0.35116972054498924,3.3455399939237855,175.62069261881925,0.0578484833240509,-0.002745105652138591,-0.9974904656410217,0.0012205794919282198,0.10283675789833069,0.0008368092821910977
2024-05-13 17:22:22.419669,0.35129783995277986,3.4703565783638908,175.6244628832411,0.06285369396209717,-0.00253870221786201,-0.9973586201667786,0.0022412450052797794,0.10720334947109222,0.0014209370128810406
2024-05-13 17:22:22.437630,0.3550123422833561,3.5933428855498444,175.61406733532434,0.06238050386309624,-0.0092963557690382,-1.0001420974731445,0.0015844088047742844,0.10764353722333908,-0.0002122658770531416
2024-05-13 17:22:22.448761,0.35626005242607345,3.7158359250116764,175.61013314636241,0.07204777002334595,-0.006286900024861097,-0.9988304376602173,0.0011175476247444749,0.10378965735435486,0.0006881929002702236
2024-05-13 17:22:22.473998,0.358046040172326,3.8371563063703817,175.61386242964926,0.07570122182369232,-0.0027364108245819807,-0.9953429698944092,0.0027239678893238306,0.1025368943810463,0.0003702810499817133
2024-05-13 17:22:22.492429,0.3589058702753807,3.954865652092266,175.6243945813494,0.07604978233575821,0.0018814903451129794,-0.9974333643913269,0.0033416885416954756,0.10030124336481094,0.0005744480877183378
2024-05-13 17:22:22.515930,0.3608220318222602,4.070144731130094,175.62554205312998,0.07739304006099701,-0.0015208199620246887,-0.996654212474823,0.0036339256912469864,0.09769964218139648,0.0026159225963056087
2024-05-13 17:22:22.533913,0.3632407992425174,4.182728873653531,175.61130793889967,0.07632137835025787,-0.007129826582968235,-0.9992161989212036,0.0004182665143162012,0.09661874920129776,0.0032485933043062687
2024-05-13 17:22:22.553942,0.36442090118462217,4.295383025615958,175.59883601347522,0.07503947615623474,-0.004525077994912863,-0.9961531162261963,0.0011725720250979066,0.09909602254629135,0.0024465476162731647
2024-05-13 17:22:22.575993,0.3667923642087918,4.41475680306121,175.59256589981715,0.0767354667186737,-0.0028818377759307623,-0.9988197088241577,0.003224011044949293,0.1028313860297203,0.0013077943585813046
2024-05-13 17:22:22.594018,0.3697371362364193,4.53368234934218,175.5743566154899,0.08187984675168991,-0.00685114786028862,-0.9970522522926331,0.002168303821235895,0.10157891362905502,0.0019875597208738327
2024-05-13 17:22:22.616417,0.37102588087500965,4.643671019981011,175.5535381988997,0.08493905514478683,-0.007096423301845789,-0.9994066953659058,0.0015327990986406803,0.09614353626966476,0.0023705572821199894
2024-05-13 17:22:22.620681,0.37154110659009604,4.755903407762191,175.54898929291247,0.08758892863988876,-0.00278923730365932,-0.9957506060600281,0.0021500769071280956,0.09527699649333954,0.002969729481264949
2024-05-13 17:22:22.653711,0.37361855131483773,4.87079060469639,175.53892159407587,0.09426532685756683,-0.002869504736736417,-0.9981839656829834,0.00400724308565259,0.09627453982830048,-0.0005856663919985294
2024-05-13 17:22:22.668505,0.37551248806648824,4.979275353057349,175.53056144253176,0.09513181447982788,-0.0025560760404914618,-0.9964821338653564,0.0017861668020486832,0.09203080087900162,0.0014158658450469375
2024-05-13 17:22:22.695856,0.37478061728866546,5.080408256550435,175.527638121567,0.09290621429681778,-0.004720842000097036,-0.997643768787384,0.0007928389823064208,0.08895088732242584,0.003090126905590296
2024-05-13 17:22:22.713164,0.3731777639895339,5.190393938981504,175.52083525315368,0.09076306223869324,-0.0058220066130161285,-0.9950228929519653,-0.001132787554524839,0.09509507566690445,0.0013360348530113697
2024-05-13 17:22:22.729039,0.3694805505752943,5.306204065227302,175.51721525289358,0.09228567034006119,-0.0020979694090783596,-0.9964146614074707,-0.0012422067811712623,0.09951998293399811,-0.0013610759051516652
2024-05-13 17:22:22.755992,0.3699954828056897,5.418595254906685,175.5069153276252,0.09909158945083618,-0.007443328388035297,-0.9941327571868896,7.942430966068059e-05,0.0952863097190857,-0.0020114858634769917
2024-05-13 17:22:22.773827,0.36993689258921575,5.5233127270535585,175.50227079898957,0.10341989994049072,-0.004128484521061182,-0.9945651888847351,-0.0003459697181824595,0.09003452956676483,-0.0004226732417009771
2024-05-13 17:22:22.798005,0.3666572011684196,5.628779385575018,175.5016287612076,0.10302653163671494,-0.003073162166401744,-0.9955016374588013,-0.0017413366585969925,0.09068072587251663,-0.0007466851966455579
2024-05-13 17:22:22.815634,0.36500533592590784,5.734926074805717,175.49254460961149,0.10512887686491013,-0.0064068445935845375,-0.9963997602462769,-0.0013085140381008387,0.09021434187889099,-0.0018443503649905324
2024-05-13 17:22:22.825666,0.36527208682950857,5.835526650430365,175.49239434544972,0.10652510821819305,-0.0011013882467523217,-0.9937312006950378,0.0009397927788086236,0.08647750318050385,-0.0019586733542382717
2024-05-13 17:22:22.857696,0.36237445911541,5.933380209348199,175.505180459576,0.1077435091137886,0.0032577437814325094,-0.9935829639434814,0.00030030752532184124,0.08476240932941437,0.0019512292928993702
2024-05-13 17:22:22.875433,0.3618457597849687,6.038604823040946,175.50414227082217,0.10616958141326904,-0.003531473223119974,-0.9965924024581909,0.00015267594426404685,0.09039954096078873,0.0018819307442754507
2024-05-13 17:22:22.886101,0.36233024964879007,6.14790279079996,175.4862335148184,0.11174826323986053,-0.009892167523503304,-0.9953736066818237,-0.002185278106480837,0.09106539189815521,0.0010458722244948149
2024-05-13 17:22:22.917665,0.35854365680595846,6.246160611539294,175.47534619328138,0.1153126135468483,-0.008629314601421356,-0.9921822547912598,-0.003611630294471979,0.08434194326400757,0.0035651635844260454
2024-05-13 17:22:22.935889,0.35497939195669603,6.341919009929226,175.47373426863726,0.11363949626684189,-0.0010367713402956724,-0.9952292442321777,-0.001660127891227603,0.08333561569452286,0.002661241916939616
2024-05-13 17:22:22.947427,0.3526148391629758,6.439916429706454,175.47086558918585,0.112810879945755,0.0010972104500979185,-0.9935704469680786,0.0008269021636806428,0.08425064384937286,0.00029819837072864175
2024-05-13 17:22:22.977942,0.35504921463270356,6.539000703335359,175.44627690817381,0.11905399709939957,-0.00942603126168251,-0.9941502809524536,0.0008717969758436084,0.08327421545982361,0.002577519975602627
2024-05-13 17:22:22.992185,0.35623547975331726,6.628748962142503,175.42536286893522,0.11825689673423767,-0.009333429858088493,-0.9937112331390381,-0.0009183998918160796,0.0777430608868599,0.005236703436821699
2024-05-13 17:22:23.014013,0.35185943624902827,6.719785138495019,175.42646935958078,0.12168929725885391,0.0011457251384854317,-0.9922574758529663,-0.000321936619002372,0.07795701175928116,0.0024705545511096716
2024-05-13 17:22:23.038008,0.3513764671695143,6.818400690392132,175.41868294392697,0.12434057891368866,0.0024703945964574814,-0.995072603225708,0.0029564255382865667,0.0837036520242691,-0.00012519233860075474
2024-05-13 17:22:23.054187,0.3559234254856123,6.9158457186202345,175.40287788618755,0.12705323100090027,-0.004469780251383781,-0.9925220012664795,0.00256152730435133,0.0811852291226387,0.002845469396561384
2024-05-13 17:22:23.073841,0.3587303931106495,7.004507977349347,175.3852150169939,0.12583470344543457,-0.009292051196098328,-0.9923453330993652,0.0006173898000270128,0.0772123634815216,0.004601445514708757
2024-05-13 17:22:23.104053,0.3578254197260493,7.094151648884826,175.37681388431477,0.12590566277503967,-0.0029523647390305996,-0.9917526841163635,0.000155110057676211,0.07746859639883041,0.0018568485975265503
2024-05-13 17:22:23.107262,0.3552893117902854,7.189113903349629,175.37376761994497,0.13255541026592255,-0.000808125245384872,-0.9924260973930359,6.425753235816956e-05,0.0795513242483139,0.00017063794075511396
2024-05-13 17:22:23.134000,0.3554278899252426,7.2781052918193705,175.3661997703446,0.13314533233642578,-0.004275499377399683,-0.9899566173553467,0.00017492403276264668,0.07612588256597519,-0.00020710367243736982
2024-05-13 17:22:23.157647,0.35877188117377207,7.363884783831915,175.35883682641932,0.13113005459308624,-0.005351075436919928,-0.9919390082359314,0.0016418143641203642,0.07426044344902039,-0.0003532039117999375
2024-05-13 17:22:23.167456,0.36131121744113587,7.452448431704885,175.3493155427163,0.12933212518692017,-0.006703185383230448,-0.9925100207328796,0.0015911789378151298,0.07638581097126007,-0.0008952548378147185
2024-05-13 17:22:23.179215,0.36082413957594933,7.543511075040434,175.34939750498634,0.13532018661499023,-0.0030734874308109283,-0.9916885495185852,0.00044765142956748605,0.07721783220767975,0.0008478277595713735
2024-05-13 17:22:23.217920,0.35851820367912957,7.627413972578517,175.3505449767669,0.13838724792003632,-0.0012186908861622214,-0.9908992648124695,0.00011099097901023924,0.07227398455142975,0.001261605997569859
2024-05-13 17:22:23.226683,0.3580518831857175,7.710126709653725,175.35779863766547,0.14441674947738647,0.0006442113663069904,-0.990788459777832,0.0017473709303885698,0.0692247673869133,0.001785442465916276
2024-05-13 17:22:23.253991,0.3601361314192028,7.7933235363863576,175.35691071307338,0.14248694479465485,-0.002344649052247405,-0.991237461566925,0.0031817671842873096,0.06989892572164536,0.0029022949747741222
2024-05-13 17:22:23.273337,0.3636350025432476,7.873083924192828,175.34673373121004,0.13944797217845917,-0.0057710506953299046,-0.9924432635307312,0.0038337609730660915,0.06837692111730576,0.0019247306045144796
2024-05-13 17:22:23.295930,0.3678983746066578,7.947706302196156,175.33383833405705,0.1403539925813675,-0.004732299596071243,-0.9894050359725952,0.003368751145899296,0.06478959321975708,0.0013536174083128572
2024-05-13 17:22:23.319965,0.3666509312682049,8.025496180427078,175.3297948620684,0.14308317005634308,-0.0018525035120546818,-0.9908097982406616,0.0006846521864645183,0.06570608168840408,0.003090008394792676
2024-05-13 17:22:23.335299,0.3668887339091124,8.10417654457104,175.31543780443306,0.1464773714542389,-0.005620196461677551,-0.989966094493866,0.0005715270526707172,0.06557787954807281,0.0017107025487348437
2024-05-13 17:22:23.355822,0.3689660452317219,8.183133531376386,175.29696897291734,0.14989060163497925,-0.007512399926781654,-0.9892892241477966,0.0016807990614324808,0.0650196298956871,0.00011551288480404764
2024-05-13 17:22:23.373361,0.36754243103745027,8.256665640433452,175.2817103303115,0.14909417927265167,-0.005928421393036842,-0.9907281398773193,-0.00031338375993072987,0.0628998652100563,0.0012295120395720005
2024-05-13 17:22:23.397631,0.366891642075595,8.327100258701915,175.26978482002067,0.1460026353597641,-0.002791196573525667,-0.9894120097160339,0.0006915759877301753,0.06111118197441101,0.002474932698532939
2024-05-13 17:22:23.415882,0.36878974097377093,8.396110782528432,175.25682112097599,0.14600726962089539,-0.0024427587632089853,-0.9912915229797363,0.0020679340232163668,0.059695664793252945,0.0008390038274228573
2024-05-13 17:22:23.433968,0.36938201976043156,8.463964443064278,175.24645289381593,0.15524502098560333,-0.003454772522673011,-0.9880011677742004,0.0006267731660045683,0.05591489374637604,0.003746075090020895
2024-05-13 17:22:23.449727,0.36964863726190006,8.531972636630094,175.238461572487,0.15618780255317688,-0.004246425349265337,-0.9879873394966125,5.1948707550764084e-05,0.05686067044734955,0.003687504678964615
2024-05-13 17:22:23.475882,0.3703843500211309,8.601391264259519,175.22320292988118,0.1547597348690033,-0.004478687886148691,-0.9896342754364014,0.0009621985373087227,0.05763000249862671,0.0010056702885776758
2024-05-13 17:22:23.493085,0.37088527502764257,8.670103821083494,175.2074388532768,0.15471716225147247,-0.002993174595758319,-0.9890031218528748,0.0010718022240325809,0.058202262967824936,0.00046625224058516324
2024-05-13 17:22:23.511213,0.37196719300042846,8.736376292826481,175.19959779610963,0.1538761407136917,-0.0033208581153303385,-0.9891924262046814,0.0012339937966316938,0.05715297907590866,0.0019794448744505644
2024-05-13 17:22:23.535899,0.37272446354422717,8.800036217211938,175.18712587068518,0.1558397263288498,-0.003267022781074047,-0.9897420406341553,0.001594143221154809,0.05486023426055908,0.0008216299465857446
2024-05-13 17:22:23.553816,0.37357033978425097,8.866610924825698,175.17323326591338,0.16203826665878296,-0.00302540953271091,-0.9867783188819885,0.0015912475064396858,0.054659612476825714,0.0017748686950653791
2024-05-13 17:22:23.577993,0.37463331465426064,8.931428566275473,175.15517424574787,0.16585680842399597,-0.006723599508404732,-0.9873615503311157,-0.00010733119415817782,0.05300801619887352,0.0013390263775363564
2024-05-13 17:22:23.595922,0.3738090228792312,8.990758150727142,175.14073522584246,0.16227981448173523,-0.0044717807322740555,-0.9874315857887268,0.00036699886550195515,0.05028710141777992,-9.216461330652237e-05
2024-05-13 17:22:23.605262,0.37309241330533516,9.046179159426273,175.13010745149393,0.1590287983417511,-0.0035299716982990503,-0.9877671599388123,0.00026962865376845,0.048514027148485184,-0.0027649025432765484
2024-05-13 17:22:23.637874,0.3708624899434582,9.105645347661342,175.1208457149794,0.16124868392944336,-0.0029703641775995493,-0.9875653386116028,-0.0009211291326209903,0.04954705014824867,-0.0030714538879692554
2024-05-13 17:22:23.655557,0.3684836898020162,9.162003799824056,175.1221434509217,0.16234970092773438,-0.003461053827777505,-0.9880412220954895,-0.001630750484764576,0.04927948862314224,0.0003255109768360853
2024-05-13 17:22:23.665278,0.3679792429792137,9.217413709465784,175.1219385452466,0.16604453325271606,-0.004647926427423954,-0.985859215259552,0.00014963417197577655,0.04598874971270561,-0.0007107080309651792
2024-05-13 17:22:23.697985,0.3676535816940216,9.26902091128711,175.1193157526053,0.16819772124290466,-0.00475728465244174,-0.9881986379623413,0.00043801209540106356,0.04305399954319,1.5572644770145416e-05
2024-05-13 17:22:23.711234,0.36683718732521997,9.319017896011601,175.1163787712622,0.16652607917785645,-0.004953354597091675,-0.985836923122406,0.00011213515244890004,0.04296841844916344,0.0021557833533734083
2024-05-13 17:22:23.734056,0.36687128491021714,9.366954724927691,175.11438435602454,0.16401903331279755,-0.004336579702794552,-0.9872039556503296,-8.545024320483208e-05,0.041505806148052216,0.0016450777184218168
2024-05-13 17:22:23.757287,0.3675683377315287,9.415974138827226,175.1115020161948,0.1672087162733078,-0.0021183867938816547,-0.9861485958099365,0.0006789043545722961,0.04051695019006729,-0.0009809350594878197
2024-05-13 17:22:23.773078,0.3653654950024938,9.466301533952818,175.11304563894723,0.17251285910606384,-0.0003529773384798318,-0.9857482314109802,0.0002673535782378167,0.04027564823627472,0.0008710753754712641
2024-05-13 17:22:23.793822,0.3644661511878735,9.51306015523708,175.105081638375,0.17294585704803467,-0.0034797703847289085,-0.9866724610328674,0.0001615741493878886,0.0372786782681942,0.00018607212405186146
2024-05-13 17:22:23.817994,0.3662978958654799,9.557210498032042,175.09654390191247,0.17336763441562653,-0.0033217715099453926,-0.9856401085853577,0.002070569433271885,0.03659741207957268,-0.0005653315456584096
2024-05-13 17:22:23.835216,0.36832374064547624,9.599217015201267,175.08547899545707,0.1715197116136551,-0.005410272628068924,-0.9864392280578613,0.0023383484221994877,0.03519460931420326,0.002256417414173484
2024-05-13 17:22:23.853830,0.36932430999803023,9.639026772778687,175.0788400515838,0.169163778424263,-0.004610029980540276,-0.98607337474823,0.0014591129729524255,0.034297045320272446,0.0018136324360966682
2024-05-13 17:22:23.878030,0.3707391196515749,9.677677959518142,175.07414088143483,0.17105825245380402,-0.003628877457231283,-0.9865791201591492,0.0021466200705617666,0.032570190727710724,0.0008221018360927701
2024-05-13 17:22:23.887618,0.372021140822701,9.717424537845739,175.06946903204255,0.17639471590518951,-0.003617746289819479,-0.9852727651596069,0.001169321360066533,0.031360335648059845,0.002750036073848605
2024-05-13 17:22:23.913794,0.3735433658731147,9.753769681966668,175.06519333362212,0.1761576235294342,-0.0036118209827691317,-0.9861496686935425,0.0014845477417111397,0.0293157659471035,0.003035798203200102
2024-05-13 17:22:23.938063,0.3746867021875778,9.786604108854213,175.05493438948875,0.17600391805171967,-0.0037630172446370125,-0.9848511219024658,0.0010226054582744837,0.027011575177311897,0.0005747259128838778
2024-05-13 17:22:23.947529,0.3759946567332088,9.817616582780655,175.04292691692788,0.17402665317058563,-0.0040385909378528595,-0.9858789443969727,0.0020743596833199263,0.025929592549800873,0.000289202609565109
2024-05-13 17:22:23.973993,0.3781818380519203,9.84815948120166,175.02966268955973,0.17496782541275024,-0.005514450836926699,-0.985184907913208,0.00216244556941092,0.025189945474267006,0.0012060173321515322
2024-05-13 17:22:23.992467,0.3786254001415744,9.87680614835434,175.01538759419438,0.17662349343299866,-0.0049852654337882996,-0.9859566688537598,0.0006666037370450795,0.0227404423058033,0.0009177391766570508
2024-05-13 17:22:24.015993,0.37767072112250644,9.905959103279248,175.00134472526085,0.17934636771678925,-0.0031415249686688185,-0.9848358035087585,0.0005170967779122293,0.022894399240612984,0.0010153749026358128
2024-05-13 17:22:24.033935,0.37540654009307367,9.93448880344239,174.98786193183923,0.17895492911338806,-0.001971899066120386,-0.9841724038124084,0.0005164961330592632,0.023114122450351715,-0.0002173272951040417
2024-05-13 17:22:24.057311,0.37417691927948626,9.95920384295408,174.96877838329823,0.17675833404064178,-0.0034317076206207275,-0.98518306016922,-0.001003256649710238,0.020892178639769554,0.0001950340229086578
2024-05-13 17:22:24.075039,0.3741570957226374,9.981768226650864,174.95168924999484,0.17665733397006989,-0.006253834348171949,-0.9844750165939331,0.00021362595725804567,0.01957547478377819,0.0020116199739277363
2024-05-13 17:22:24.087498,0.3740314575945062,10.004598133951632,174.9343678902597,0.1771318018436432,-0.006366991903632879,-0.985616147518158,5.072006752016023e-05,0.01909543387591839,0.0028479923494160175
2024-05-13 17:22:24.117092,0.37244165102390636,10.026610979872936,174.92182766294354,0.17944155633449554,-0.003437644802033901,-0.9843738079071045,-0.0002104659070027992,0.017363453283905983,0.002050601178780198
2024-05-13 17:22:24.135934,0.3715276596551676,10.047099839835683,174.91166434145856,0.18183569610118866,-0.002093234797939658,-0.9841823577880859,0.00036633381387218833,0.016174450516700745,0.002309342846274376
2024-05-13 17:22:24.148064,0.37141677580286064,10.064953100552449,174.90009400100456,0.18179693818092346,-0.0030296766199171543,-0.9848238825798035,-0.00011066537990700454,0.013255691155791283,0.0024476780090481043
2024-05-13 17:22:24.177099,0.37185337430121257,10.079564582734399,174.88838705676716,0.17988499999046326,-0.004964022897183895,-0.9841528534889221,0.0005730177508667111,0.011280988343060017,0.00264628860168159
2024-05-13 17:22:24.195984,0.374045704942228,10.092659762920606,174.87734947106844,0.17741772532463074,-0.0047042351216077805,-0.9854292869567871,0.001567183411680162,0.010621649213135242,0.0018207415705546737
2024-05-13 17:22:24.210564,0.37410346806548217,10.106579688449093,174.8685658477958,0.18091310560703278,-0.0026688557118177414,-0.9846234917640686,0.0012531861430034041,0.010787717998027802,0.0009455358376726508
2024-05-13 17:22:24.237842,0.37364525842170954,10.118851830840313,174.86101165857377,0.18256889283657074,-0.0022909916006028652,-0.984991192817688,7.843502680771053e-05,0.00965870451182127,0.0011494398349896073
2024-05-13 17:22:24.252586,0.3734751440226939,10.128123812638606,174.85181822395091,0.18179862201213837,-0.0030460706911981106,-0.9839697480201721,-8.199232979677618e-05,0.006044729147106409,0.0015562170883640647
2024-05-13 17:22:24.273324,0.3749865101395443,10.136111718872936,174.83782999653073,0.1825859695672989,-0.0054251160472631454,-0.9842076897621155,0.000671537418384105,0.005363427568227053,0.001997278304770589
2024-05-13 17:22:24.297982,0.3751374679923722,10.142530389145454,174.82056327830895,0.18010365962982178,-0.005074711516499519,-0.984630823135376,-0.00018916236876975745,0.004644579254090786,0.0014510804321616888
2024-05-13 17:22:24.306439,0.37408585898402824,10.146263087526867,174.8146756552444,0.18002913892269135,-0.0024004795122891665,-0.9844173789024353,0.00013312524242792279,0.0015238126507028937,0.001273259986191988
2024-05-13 17:22:24.334037,0.37315249762569014,10.149860035898525,174.8083235793163,0.1821853667497635,-0.0025188298895955086,-0.9842926263809204,0.0005577726988121867,0.001677122199907899,0.002556231338530779
2024-05-13 17:22:24.357980,0.3731058335598372,10.151258517131085,174.7974772389143,0.18248781561851501,-0.0043275789357721806,-0.9831886291503906,0.0004907326074317098,-0.0001755561970639974,0.0026717083528637886
2024-05-13 17:22:24.367794,0.37389800210142643,10.151434394502212,174.78224591706518,0.18149766325950623,-0.0055542695336043835,-0.9844177961349487,0.00101606291718781,-0.0008401009254157543,0.0011821426451206207
2024-05-13 17:22:24.378857,0.375605629435209,10.151598319042293,174.77133127477148,0.18094909191131592,-0.004002781584858894,-0.9836710095405579,0.0009475216502323747,-0.0011433134786784649,0.0018282000673934817
2024-05-13 17:22:24.417989,0.3742809729426232,10.150846998233591,174.76604470835392,0.18024523556232452,-0.0025645671412348747,-0.9842767715454102,0.00047502422239631414,-0.0013201218098402023,0.0016583825927227736
2024-05-13 17:22:24.429281,0.3739641962394374,10.150677097277987,174.756045311409,0.1799962967634201,-0.003334159730002284,-0.9843290448188782,0.0005715149454772472,-0.0013492013094946742,0.0011590709909796715
2024-05-13 17:22:24.439861,0.375624919383529,10.151361823742281,174.74278108404084,0.18134550750255585,-0.004894659388810396,-0.9841709733009338,0.0009570250986143947,-0.001200398663058877,0.0014702454209327698
2024-05-13 17:22:24.477996,0.37592430044867237,10.151144965236133,174.7303091586164,0.18243807554244995,-0.00482008745893836,-0.9843341708183289,0.0002334849996259436,-0.0016753736417740583,0.0014875564957037568
2024-05-13 17:22:24.495982,0.37519533783733217,10.151361823742281,174.72397074306662,0.18123847246170044,-0.0032128046732395887,-0.9828301072120667,0.00031084485817700624,-0.001477457000873983,0.0011137230321764946
2024-05-13 17:22:24.513981,0.3761819266464288,10.148710002797024,174.71376644044662,0.18089912831783295,-0.004421433433890343,-0.9843127727508545,0.001004601246677339,-0.00348179810680449,-0.0004458060138858855
2024-05-13 17:22:24.522713,0.37517740859076093,10.144559809102594,174.70380802463674,0.1815384328365326,-0.0032215851824730635,-0.9829511046409607,0.0005565613391809165,-0.005847115069627762,-0.00046630430733785033
2024-05-13 17:22:24.555816,0.3762041514416578,10.138571440747786,174.69088530672707,0.18140330910682678,-0.004692583344876766,-0.9839154481887817,0.001680763904005289,-0.006368698086589575,0.0015951376408338547
2024-05-13 17:22:24.569949,0.37556758314709787,10.131784794033733,174.68068100410707,0.1821809560060501,-0.0026998003013432026,-0.9834246039390564,0.0017480350797995925,-0.008017007261514664,4.614578210748732e-05
2024-05-13 17:22:24.597602,0.3759891605653611,10.121886142379092,174.6708591920806,0.18170978128910065,-0.0037345425225794315,-0.9838963747024536,0.0012774987844750285,-0.010807766579091549,0.0009635534370318055
2024-05-13 17:22:24.615592,0.376339794729706,10.110650481194421,174.6615428140527,0.18003083765506744,-0.0036235516890883446,-0.9840413331985474,0.0014573908410966396,-0.011670568957924843,0.001085190218873322
2024-05-13 17:22:24.618955,0.376290969549311,10.097889980277543,174.65247232283494,0.17887356877326965,-0.004296553321182728,-0.9844520688056946,0.0013956627808511257,-0.012377873994410038,0.0011210341472178698
2024-05-13 17:22:24.657905,0.37602237769628555,10.085763833179833,174.64329254859044,0.18117265403270721,-0.003402654081583023,-0.983140766620636,0.0011275726137682796,-0.01245044730603695,0.0011053356574848294
2024-05-13 17:22:24.665969,0.3752869050608927,10.071189917038318,174.6356700574767,0.18103240430355072,-0.002787292469292879,-0.984647810459137,0.0012757228687405586,-0.015072635374963284,0.0017506293952465057
2024-05-13 17:22:24.679006,0.37538882428991394,10.055991038587747,174.6284983588482,0.180141881108284,-0.003562533063814044,-0.983855664730072,0.0015469409991055727,-0.01560115721076727,0.0014727098168805242
2024-05-13 17:22:24.717129,0.37650307893955165,10.040460042188784,174.61825307509318,0.17931993305683136,-0.004701659083366394,-0.9840540289878845,0.0013127990532666445,-0.014753313735127449,0.001070600003004074
2024-05-13 17:22:24.726396,0.3772438076189542,10.022292592770196,174.60920990463208,0.1785740852355957,-0.00575505755841732,-0.9843654036521912,0.00010203468264080584,-0.017342884093523026,0.0014603354502469301
2024-05-13 17:22:24.753982,0.3771867115063611,10.002341610204589,174.60104099838475,0.17845219373703003,-0.004371431190520525,-0.9841570258140564,0.0013416358269751072,-0.019133951514959335,0.0012056712293997407
2024-05-13 17:22:24.773393,0.37794419549357144,9.982562236141879,174.59121918635824,0.17957131564617157,-0.003101003123447299,-0.9840545654296875,0.002210962353274226,-0.0190977081656456,0.0005015531787648797
2024-05-13 17:22:24.795776,0.37814702009540907,9.960699654382314,174.57854235525872,0.17948734760284424,-0.0033247536048293114,-0.9837963581085205,0.0011004689149558544,-0.021248066797852516,-0.00015491736121475697
2024-05-13 17:22:24.813944,0.37850784618265615,9.936836680969583,174.56609775059096,0.1777096837759018,-0.004059654660522938,-0.9845210313796997,0.0009381704148836434,-0.021752096712589264,-0.00017927373119164258
2024-05-13 17:22:24.835226,0.37790070639846546,9.910252730946246,174.55903533498915,0.17676013708114624,-0.00300177582539618,-0.984285295009613,0.000991437816992402,-0.023274634033441544,0.0011337468167766929
2024-05-13 17:22:24.856014,0.37713297712750016,9.885157762161972,174.54846220215398,0.17594961822032928,-0.004089967347681522,-0.9854235053062439,0.000486467411974445,-0.023244870826601982,0.0012096237624064088
2024-05-13 17:22:24.873371,0.37795790923276434,9.85855246779748,174.5364547295931,0.17574580013751984,-0.0037117712199687958,-0.9856338500976562,0.0009455346735194325,-0.023741142824292183,-0.0004603909910656512
2024-05-13 17:22:24.897891,0.379744804113516,9.830638338433285,174.5274798610237,0.17642077803611755,-0.00269200443290174,-0.9855603575706482,0.003089817939326167,-0.02586645819246769,-0.0002993469825014472
2024-05-13 17:22:24.915979,0.38127289885774773,9.800967142905103,174.52085457752878,0.17582359910011292,-0.0020142444409430027,-0.9854156970977783,0.0026687176432460546,-0.02800828590989113,-0.00026900929515250027
2024-05-13 17:22:24.933898,0.3818188604240992,9.770290202021638,174.51261736938974,0.17450131475925446,-0.0015003976877778769,-0.9862034916877747,0.0031241034157574177,-0.028516186401247978,-0.0010036235908046365
2024-05-13 17:22:24.957129,0.3851233379610631,9.737534322309548,174.50343759514524,0.1730884164571762,-0.003174721961840987,-0.9858117699623108,0.003661704482510686,-0.0295320563018322,-0.0005716306040994823
2024-05-13 17:22:24.975590,0.39011060335478887,9.70493809826931,174.48906687713153,0.17354705929756165,-0.0048799109645187855,-0.9864799380302429,0.005095343105494976,-0.0303900558501482,-0.001376837259158492
2024-05-13 17:22:24.991723,0.3927726429033749,9.671829610041318,174.47480544214457,0.17520886659622192,-0.004495587665587664,-0.9876290559768677,0.00400291895493865,-0.030559763312339783,-0.002447067992761731
2024-05-13 17:22:25.017234,0.39745556467263843,9.637128833963068,174.46129532796627,0.17543967068195343,-0.0076124719344079494,-0.9859765768051147,0.004131728783249855,-0.03315670043230057,-0.002239706926047802
2024-05-13 17:22:25.035977,0.3982603263755099,9.597543618854614,174.4491239308653,0.17581917345523834,-0.003332936204969883,-0.9893183708190918,0.0026300381869077682,-0.03702326491475105,-0.001366421114653349
2024-05-13 17:22:25.045590,0.4000307594331448,9.552515596751304,174.43898793013702,0.17361244559288025,-0.002656952477991581,-0.9867914319038391,0.0028546061366796494,-0.04026144742965698,-0.00010096310870721936
2024-05-13 17:22:25.077874,0.4027042982455288,9.504186885731587,174.43105125032145,0.17218682169914246,-0.004123508930206299,-0.9890360832214355,0.003145962953567505,-0.04358118027448654,0.001267619663849473
2024-05-13 17:22:25.095901,0.4041049672730574,9.453448825482146,174.41870226830207,0.17195509374141693,-0.005734243430197239,-0.9867640733718872,0.0021186296362429857,-0.04622752219438553,0.0014259165618568659
2024-05-13 17:22:25.116543,0.4047813961247267,9.400817095285321,174.4120223432938,0.16960658133029938,-0.004336954094469547,-0.9864575862884521,0.0007166024879552424,-0.04727984964847565,0.0016024013748392463
2024-05-13 17:22:25.137798,0.405493710149965,9.348014610359245,174.40650355044443,0.16831065714359283,-0.0053908624686300755,-0.9878960251808167,0.0010315054096281528,-0.04847748950123787,0.0006445990293286741
2024-05-13 17:22:25.153724,0.40740448225070247,9.292044625205575,174.39982362543617,0.16812095046043396,-0.0056039802730083466,-0.9874287843704224,0.00179065961856395,-0.0500766821205616,0.0010051705176010728
2024-05-13 17:22:25.159227,0.40777203180541377,9.230870889678002,174.39307539853618,0.16673514246940613,-0.0052628000266849995,-0.9868191480636597,0.0018001626012846828,-0.05472175031900406,0.00034128266270272434
2024-05-13 17:22:25.197992,0.4087631296065797,9.167193036045974,174.388608454819,0.1661483645439148,-0.004697891417890787,-0.9875864386558533,0.0010811715619638562,-0.05685540661215782,-0.00039652216946706176
2024-05-13 17:22:25.215984,0.40823603110172507,9.103078050307063,174.39054822854328,0.16373206675052643,-0.001467511523514986,-0.9876644611358643,0.002126063220202923,-0.0570819191634655,-0.0013259312836453319
2024-05-13 17:22:25.233031,0.40852180514938136,9.038005984310706,174.38474256774876,0.16263817250728607,-0.0024846531450748444,-0.9888046979904175,0.0015586825320497155,-0.05750046670436859,-0.0021052181255072355
2024-05-13 17:22:25.242465,0.4070912540442339,8.970362352091838,174.38232468078257,0.16085639595985413,-0.0019363710889592767,-0.9879790544509888,0.0006913256365805864,-0.0593518503010273,0.00024778713122941554
2024-05-13 17:22:25.275615,0.407205979877949,8.903356488786722,174.37583600107106,0.15997657179832458,-0.004261180758476257,-0.9894618391990662,0.0008520708652213216,-0.059575796127319336,0.0010908432304859161
2024-05-13 17:22:25.290062,0.40733959545358733,8.83783875294702,174.36197071705595,0.16012200713157654,-0.005857966374605894,-0.9893962740898132,0.0008481540717184544,-0.05929563194513321,-0.0009050284279510379
2024-05-13 17:22:25.317980,0.4069989664491594,8.769174861220883,174.3494987916315,0.16164176166057587,-0.006448243744671345,-0.9877277612686157,0.0004269301425665617,-0.062494490295648575,-0.0021405748557299376
2024-05-13 17:22:25.335055,0.40509128927788957,8.694982785135265,174.35514052788594,0.15922026336193085,-0.0018976659048348665,-0.9870826601982117,-9.527606016490608e-05,-0.06608470529317856,0.0010373042896389961
2024-05-13 17:22:25.353824,0.40257145640225733,8.619661166515657,174.35998996219664,0.15651902556419373,-0.0014554630033671856,-0.987985372543335,-0.0007503685192205012,-0.06698231399059296,0.0006540388567373157
2024-05-13 17:22:25.377983,0.4013672353546459,8.545300043248082,174.35662950912499,0.15292300283908844,-0.0026847159024327993,-0.9891344308853149,0.00018278020434081554,-0.06519735604524612,0.0006116963922977448
2024-05-13 17:22:25.387382,0.4032416953949913,8.472266538000428,174.34466301769913,0.15051041543483734,-0.008418967016041279,-0.989468514919281,0.0003524539351928979,-0.06439916044473648,0.0020025912672281265
2024-05-13 17:22:25.413830,0.4048731767916987,8.397306065633185,174.33286045081334,0.1497826725244522,-0.010131658054888248,-0.9904285669326782,-0.0005615197005681694,-0.06619052588939667,0.0013628198066726327
2024-05-13 17:22:25.437871,0.40505868579677334,8.321315088474915,174.32411780867574,0.1494808942079544,-0.005958204157650471,-0.9902616143226624,5.569815402850509e-05,-0.06729227304458618,-0.0013220047112554312
2024-05-13 17:22:25.447607,0.40183849172695035,8.243561922510782,174.3278607523409,0.15039508044719696,0.0006450570654124022,-0.9895516037940979,-9.597283496987075e-05,-0.06921351701021194,-0.00020610557112377137
2024-05-13 17:22:25.473886,0.39976881100630424,8.165801072583832,174.3208666386308,0.1502004861831665,-0.0032565200235694647,-0.9899425506591797,9.995332220569253e-06,-0.07012838870286942,0.0014491226756945252
2024-05-13 17:22:25.492452,0.4001559173136,8.086964467862607,174.30543041110658,0.14613373577594757,-0.005705639254301786,-0.9914347529411316,0.0007967345882207155,-0.07039539515972137,0.0007580927340313792
2024-05-13 17:22:25.500357,0.39819210452508913,8.006101858278827,174.2943381838945,0.14781971275806427,-0.005143505986779928,-0.9921385645866394,-0.0012007243931293488,-0.07237869501113892,0.0010212763445451856
2024-05-13 17:22:25.533925,0.39868270420656643,7.922770989083732,174.28167501317327,0.14647839963436127,-0.005011637229472399,-0.9889369010925293,0.0005998755223117769,-0.07494626194238663,0.001319770235568285
2024-05-13 17:22:25.554274,0.3957104513397002,7.8360847894588685,174.28084173009455,0.14382998645305634,-0.0005955439992249012,-0.9900025129318237,-0.00039266046951524913,-0.07710548490285873,0.0018609603866934776
2024-05-13 17:22:25.575923,0.39636428187017025,7.748430410519156,174.2785058053984,0.1405176818370819,-0.003190339542925358,-0.9912492632865906,0.0009315871866419911,-0.07740379869937897,0.00386249041184783
2024-05-13 17:22:25.593146,0.3985323866839733,7.661855201468306,174.26600655921726,0.1376933753490448,-0.006289168260991573,-0.9914567470550537,0.00121357012540102,-0.07647671550512314,0.002947794971987605
2024-05-13 17:22:25.616475,0.39906119273612034,7.5709727043721164,174.2696265594774,0.1342492550611496,-0.0023398404009640217,-0.9920293092727661,0.0013164975680410862,-0.07921075075864792,0.0029741493053734303
2024-05-13 17:22:25.635922,0.3987551949252185,7.47912373550837,174.26435365343812,0.13629452884197235,-0.004427737090736628,-0.991749107837677,0.0009365150472149253,-0.08128385245800018,0.0010966804111376405
2024-05-13 17:22:25.653915,0.4000669114109783,7.387898875180033,174.2548596904918,0.13694997131824493,-0.005065364297479391,-0.9911003708839417,0.0017801107605919242,-0.08244393020868301,-0.001336389221251011
2024-05-13 17:22:25.671052,0.4017721908672336,7.293990604281528,174.2476470107283,0.13330033421516418,-0.004725314676761627,-0.992367684841156,0.0015323940897360444,-0.08407089114189148,-0.0013314875541254878
2024-05-13 17:22:25.680405,0.4010449358031859,7.1988708285789915,174.24043433096475,0.1327599138021469,-0.004673668183386326,-0.9927906394004822,0.0009603282669559121,-0.08457713574171066,-0.0019123086240142584
2024-05-13 17:22:25.713123,0.39760553534968784,7.103926930247583,174.24667712386614,0.12958091497421265,-0.0006913788383826613,-0.9919312596321106,0.00040832284139469266,-0.08409862965345383,0.0006841270951554179
2024-05-13 17:22:25.727443,0.39662625697743725,7.009628057905918,174.24839833153698,0.12865719199180603,-0.0038177238311618567,-0.9913420081138611,0.0005567871266975999,-0.08439261466264725,0.00297502800822258
2024-05-13 17:22:25.741821,0.39661379721828727,6.913638713744675,174.23998353847952,0.12601174414157867,-0.00642303517088294,-0.9938048720359802,7.070516585372388e-05,-0.08641223609447479,0.001042499323375523
2024-05-13 17:22:25.773644,0.3946538264111845,6.813173034356134,174.24155448198863,0.12591706216335297,-0.003947610035538673,-0.9916732907295227,-0.000838706735521555,-0.08860794454813004,0.0028279037214815617
2024-05-13 17:22:25.788688,0.39313805802397056,6.710036324115295,174.24628097289428,0.11952094733715057,-0.00365550653077662,-0.9964330792427063,-0.0005201520398259163,-0.08969391882419586,0.004724484868347645
2024-05-13 17:22:25.815858,0.3909731815417674,6.608540993709375,174.25032444488292,0.11819396913051605,-0.002126622013747692,-0.993107259273529,0.00015698058996349573,-0.08885104954242706,0.0029035238549113274
2024-05-13 17:22:25.833837,0.39365296357393964,6.510589677709045,174.23662308540787,0.11896306276321411,-0.009099261835217476,-0.9938321709632874,0.000621223181951791,-0.08613785356283188,0.0020860680378973484
2024-05-13 17:22:25.858001,0.39509954961538074,6.412403573955996,174.22889131126743,0.12096521258354187,-0.007107678800821304,-0.9953099489212036,0.0010597113287076354,-0.0891750380396843,0.0020808151457458735
2024-05-13 17:22:25.870414,0.39449622513217175,6.310184670384878,174.21960225399621,0.11978544294834137,-0.004457452334463596,-0.992300808429718,0.0014587152982130647,-0.09099659323692322,0.0003719468368217349
2024-05-13 17:22:25.878309,0.394335208758574,6.207899599356175,174.22064044275004,0.11719153076410294,-3.863498568534851e-05,-0.9948029518127441,0.002177775837481022,-0.09112785756587982,0.0005777254700660706
2024-05-13 17:22:25.917982,0.395870453857093,6.102132412511235,174.22457463171196,0.11161478608846664,-0.0016904312651604414,-0.9940536618232727,0.0022250358015298843,-0.09376879781484604,0.002343863947317004
2024-05-13 17:22:25.929235,0.39903662006336416,5.992201798480349,174.21704776324663,0.10789787024259567,-0.006074578035622835,-0.9935036301612854,0.0029529216699302197,-0.0963190421462059,0.00043883570469915867
2024-05-13 17:22:25.938359,0.40172798140061367,5.882068413208478,174.22020331064317,0.10523712635040283,-0.0028225479181855917,-0.9949226379394531,0.0026768078096210957,-0.09548778086900711,0.0008981173159554601
2024-05-13 17:22:25.977996,0.40192520311289776,5.775309141386594,174.22611825446438,0.10519154369831085,-0.001844275277107954,-0.9966063499450684,0.002954010618850589,-0.09431678801774979,0.0008995769894681871
2024-05-13 17:22:25.991765,0.40382562320817444,5.672258235397203,174.2267739526247,0.1078549399971962,-0.0030629343818873167,-0.9940814971923828,0.0029323031194508076,-0.09317754954099655,0.0006852166843600571
2024-05-13 17:22:26.037973,0.406525975849136,5.563329524740194,174.21848210297233,0.10340084135532379,-0.006136790383607149,-0.9956905245780945,0.0020886901766061783,-0.09645064920186996,-0.0016939507331699133
2024-05-13 17:22:26.054271,0.4072381031113892,5.338789617096964,174.1891259499196,0.10004232823848724,-0.006789625156670809,-0.9955699443817139,-0.0009576097363606095,-0.10141263902187347,0.00011905573774129152
2024-05-13 17:22:26.073966,0.40462862400290056,5.222990163021744,174.1905602896453,0.09674890339374542,-0.003313916502520442,-0.9951903223991394,-0.0018337920773774385,-0.10218744724988937,0.0007946444675326347
2024-05-13 17:22:26.097977,0.4017830764812233,5.106724975422495,174.19971274313312,0.09429476410150528,0.0003748611779883504,-0.9962692856788635,-0.0011224796762689948,-0.1016150414943695,0.0036189197562634945
2024-05-13 17:22:26.107592,0.3981676919348916,4.991296059109748,174.20337372452826,0.09009569138288498,-0.00240508234128356,-0.998049259185791,-0.002276131184771657,-0.10256277769804001,0.003366519697010517
2024-05-13 17:22:26.133771,0.39658767708079723,4.87660693766148,174.19715825238353,0.08906019479036331,-0.00636047450825572,-0.9971722364425659,-0.002137192524969578,-0.10111871361732483,0.0034462986513972282
2024-05-13 17:22:26.157952,0.3946528125549796,4.763643719639108,174.19150285575077,0.0912381112575531,-0.004703843500465155,-0.9980347752571106,-0.0010679010301828384,-0.10057590901851654,0.0019249346805736423
2024-05-13 17:22:26.167525,0.3934816218753075,4.65264076590853,174.18855221402933,0.09167757630348206,-0.004964894615113735,-0.9963876605033875,-0.0006209544953890145,-0.10083824396133423,0.0029636842664331198
2024-05-13 17:22:26.179068,0.39198012751624184,4.540298668213807,174.18233674188463,0.08936024457216263,-0.005022783298045397,-0.9968817830085754,-0.00023036269703879952,-0.10128673911094666,0.00025131614529527724
2024-05-13 17:22:26.218130,0.39316513865681263,4.424471466495084,174.17761025097897,0.08345312625169754,-0.0060406955890357494,-0.9964852929115295,0.001274419017136097,-0.10237058997154236,0.0001153675839304924
2024-05-13 17:22:26.235861,0.3927148530996942,4.307946304820551,174.17938610016316,0.07875018566846848,-0.00479373661801219,-0.9984214901924133,0.00048721014172770083,-0.10262592136859894,0.0010116822086274624
2024-05-13 17:22:26.253969,0.3899146089421212,4.193701145668332,174.1882653460842,0.0754176676273346,-0.001795042073354125,-0.998956561088562,-0.0005723373615182936,-0.10057903081178665,1.5721365343779325e-05
2024-05-13 17:22:26.277845,0.38809825887057386,4.07584452399247,174.19137991234572,0.07670728862285614,-0.0019933111034333706,-0.9985486268997192,-0.0003220941871404648,-0.10350123792886734,-0.0010784220648929477
2024-05-13 17:22:26.295843,0.3869225591988325,3.9538547840951037,174.1982374222724,0.07830038666725159,-0.0010765872430056334,-0.9966481924057007,0.0008414504118263721,-0.1082034483551979,0.0004767837526742369
2024-05-13 17:22:26.306464,0.3860795911252913,3.8314458413374277,174.2086466305675,0.07586166262626648,-0.003064510179683566,-0.9989622831344604,0.001384427770972252,-0.10871598869562149,0.0031895898282527924
2024-05-13 17:22:26.337098,0.38737015003287995,3.710581801992644,174.2071439889501,0.06993088126182556,-0.0075373039580881596,-0.9978253245353699,0.0010884342482313514,-0.10660725086927414,-0.0002705045626498759
2024-05-13 17:22:26.355836,0.3894689390987779,3.5909527462271633,174.1964615730882,0.0673813745379448,-0.008017013780772686,-0.996431827545166,0.00021430087508633733,-0.10669415444135666,-0.0005416905041784048
2024-05-13 17:22:26.367311,0.38998042955416196,3.4672490557349467,174.19415296914875,0.06483285129070282,-0.005579366348683834,-0.9987006783485413,0.0010000145994126797,-0.10789556056261063,0.00278828339651227
2024-05-13 17:22:26.397151,0.3873562495307019,3.3454759609003166,174.1955736484961,0.06392739713191986,-0.002723658224567771,-0.9994145035743713,-0.0004706674662884325,-0.107541523873806,0.0026840390637516975
2024-05-13 17:22:26.415970,0.38496880493109153,3.222788901377374,174.19958979972807,0.06509719043970108,-0.0027941553853452206,-0.9994012117385864,-0.0009861089056357741,-0.11050842702388763,0.002743111690506339
2024-05-13 17:22:26.429078,0.38369289357762143,3.0950735419648328,174.2009011960487,0.06407264620065689,-0.003955997060984373,-0.9991844892501831,-0.00027563440380617976,-0.11439494788646698,0.0033420154359191656
2024-05-13 17:22:26.457678,0.3827488867291316,2.963380237690994,174.20923402683613,0.05919426679611206,-0.0016003272030502558,-0.9984481930732727,-0.0003400086425244808,-0.11575843393802643,0.004997469950467348
2024-05-13 17:22:26.475875,0.3821667731849467,2.8358620999907367,174.21827719729723,0.05242329463362694,-0.0013694587396457791,-1.0013092756271362,0.001004798337817192,-0.11115628480911255,0.004499776288866997
2024-05-13 17:22:26.491511,0.38597180220245203,2.7154851385111396,174.2175531972452,0.05050470307469368,-0.00821750145405531,-0.9977689385414124,0.002572638215497136,-0.10722202062606812,0.0026999376714229584
